Folder: STC_grapher/data_dir (part 2)

File: 1540_A_09_OCV_C04.mpt
EC-Lab ASCII FILE
Nb header lines : 48

Open Circuit Voltage

Run on channel : 4 (SN 13148)
User :
Electrode connection : standard
Potential control : Ewe
Ewe ctrl range : min = -1.00 V, max = 1.00 V
Ewe,I filtering : 5 Hz
Safety Limits :
	Do not start on E overload
Channel : Floating
Acquisition started on : 06/24/2024 21:42:04.718
Loaded Setting File :  NONE
Saved on :
	File : 1540_A_09_OCV_C04.mpr
	Directory : C:\Users\mAtsuhitA\Desktop\Oyafuso\20240624_???????4\
	Host : 192.109.209.100
Device : VSP-300 (SN 0960)
Address : USB
EC-Lab for windows v11.50 (software)
Internet server v11.50 (firmware)
Command interpretor v11.50 (firmware)
Electrode material :
Initial state :
Electrolyte :
Comments :
Cable : standard
Electrode surface area : 0.001 cm2
Characteristic mass : 0.001 g
Equivalent Weight : 0.000 g/eq.
Density : 0.000 g/cm3
Volume (V) : 0.001 cm3
Text export
   Mode : Standard
   Time format : Elapsed
Cycle Definition : Charge/Discharge alternance
tR (h:m:s)          5:00:0.0000
dER/dt (mV/h)       0.0
record              Ewe
dER (mV)            10.00
dtR (s)             30.0000
E range min (V)     -1.000
E range max (V)     1.000

mode	error	time/s	Ewe/V
3	0	50235.3	-0.000361402
3	0	50236.4	-0.0306469
3	0	50238	-0.0606833
3	0	50240.2	-0.0907234
3	0	50242.7	-0.12076
3	0	50245.4	-0.150792
3	0	50248.3	-0.180829
3	0	50251.3	-0.210914
3	0	50254.9	-0.240958
3	0	50259.7	-0.270979
3	0	50268.3	-0.300997
3	0	50294.7	-0.331029
3	0	50378.2	-0.352448
3	0	50468.2	-0.360145
3	0	50558.2	-0.364723
3	0	50648.2	-0.367865
3	0	50738.2	-0.370351
3	0	50828.2	-0.372359
3	0	50918.2	-0.374047
3	0	51008.2	-0.375417
3	0	51098.2	-0.376601
3	0	51188.2	-0.377724
3	0	51278.2	-0.378575
3	0	51368.2	-0.379415
3	0	51458.2	-0.380125
3	0	51548.2	-0.380812
3	0	51638.2	-0.381358
3	0	51728.2	-0.381981
3	0	51818.2	-0.382504
3	0	51908.2	-0.382943
3	0	51998.2	-0.383355
3	0	52088.2	-0.383821
3	0	52178.2	-0.384161
3	0	52268.2	-0.384428
3	0	52358.2	-0.384775
3	0	52448.2	-0.385031
3	0	52538.2	-0.385279
3	0	52628.2	-0.385547
3	0	52718.2	-0.385738
3	0	52808.2	-0.385951
3	0	52898.2	-0.386077
3	0	52988.2	-0.386272
3	0	53078.2	-0.386516
3	0	53168.2	-0.386665
3	0	53258.2	-0.386841
3	0	53348.2	-0.386994
3	0	53438.2	-0.387192
3	0	53528.2	-0.387364
3	0	53618.2	-0.387452
3	0	53708.2	-0.387509
3	0	53798.2	-0.387543
3	0	53888.2	-0.387635
3	0	53978.2	-0.387761
3	0	54068.2	-0.387841
3	0	54158.2	-0.387891
3	0	54248.2	-0.387944
3	0	54338.2	-0.388044
3	0	54428.2	-0.388112
3	0	54518.2	-0.38812
3	0	54608.2	-0.388128
3	0	54698.2	-0.388181
3	0	54788.2	-0.388277
3	0	54878.2	-0.388383
3	0	54968.2	-0.388433
3	0	55058.2	-0.388425
3	0	55148.2	-0.388445
3	0	55238.2	-0.388529
3	0	55328.2	-0.388613
3	0	55418.2	-0.388685
3	0	55508.2	-0.388719
3	0	55598.2	-0.388662
3	0	55688.2	-0.388685
3	0	55778.2	-0.38875
3	0	55868.2	-0.388754
3	0	55958.2	-0.3888
3	0	56048.2	-0.388815
3	0	56138.2	-0.388803
3	0	56228.2	-0.388964
3	0	56318.2	-0.388968
3	0	56408.2	-0.388907
3	0	56498.2	-0.38891
3	0	56588.2	-0.388933
3	0	56678.2	-0.388945
3	0	56768.2	-0.388948
3	0	56858.2	-0.38891
3	0	56948.2	-0.38891
3	0	57038.2	-0.388899
3	0	57128.2	-0.388834
3	0	57218.2	-0.388857
3	0	57308.2	-0.388865
3	0	57398.2	-0.388899
3	0	57488.2	-0.388868
3	0	57578.2	-0.388803
3	0	57668.2	-0.388826
3	0	57758.2	-0.388826
3	0	57848.2	-0.388826
3	0	57938.2	-0.388857
3	0	58028.2	-0.388926
3	0	58118.2	-0.388903
3	0	58208.2	-0.388903
3	0	58298.2	-0.388941
3	0	58388.2	-0.388975
3	0	58478.2	-0.38896
3	0	58568.2	-0.388933
3	0	58658.2	-0.388922
3	0	58748.2	-0.388914
3	0	58838.2	-0.388865
3	0	58928.2	-0.388903
3	0	59018.2	-0.388907
3	0	59108.2	-0.388819
3	0	59198.2	-0.38875
3	0	59288.2	-0.388681
3	0	59378.2	-0.388681
3	0	59468.2	-0.388689
3	0	59558.2	-0.388685
3	0	59648.2	-0.388666
3	0	59738.2	-0.388578
3	0	59828.2	-0.388551
3	0	59918.2	-0.38854
3	0	60008.2	-0.388509
3	0	60098.2	-0.388368
3	0	60188.2	-0.388338
3	0	60278.2	-0.388257
3	0	60368.2	-0.388303
3	0	60458.2	-0.388311
3	0	60548.2	-0.388299
3	0	60638.2	-0.388223
3	0	60728.2	-0.388181
3	0	60818.2	-0.388147
3	0	60908.2	-0.388177
3	0	60998.2	-0.388147
3	0	61088.2	-0.388047
3	0	61178.2	-0.388055
3	0	61268.2	-0.388009
3	0	61358.2	-0.387998
3	0	61448.2	-0.387986
3	0	61538.2	-0.388017
3	0	61628.2	-0.387899
3	0	61718.2	-0.387899
3	0	61808.2	-0.387876
3	0	61898.2	-0.387799
3	0	61988.2	-0.387845
3	0	62078.2	-0.387811
3	0	62168.2	-0.387807
3	0	62258.2	-0.387799
3	0	62348.2	-0.387849
3	0	62438.2	-0.387769
3	0	62528.2	-0.387727
3	0	62618.2	-0.387616
3	0	62708.2	-0.387589
3	0	62798.2	-0.387574
3	0	62888.2	-0.387505
3	0	62978.2	-0.387433
3	0	63068.2	-0.387364
3	0	63158.2	-0.387345
3	0	63248.2	-0.387318
3	0	63338.2	-0.38723
3	0	63428.2	-0.387089
3	0	63518.2	-0.38702
3	0	63608.2	-0.386978
3	0	63698.2	-0.386929
3	0	63788.2	-0.38686
3	0	63878.2	-0.38681
3	0	63968.2	-0.386803
3	0	64058.2	-0.386772
3	0	64148.2	-0.386742
3	0	64238.2	-0.386765
3	0	64328.2	-0.386803
3	0	64418.2	-0.3867
3	0	64508.2	-0.386604
3	0	64598.2	-0.386581
3	0	64688.2	-0.386543
3	0	64778.2	-0.386543
3	0	64868.2	-0.386532
3	0	64958.2	-0.386425
3	0	65048.2	-0.386352
3	0	65138.2	-0.386314
3	0	65228.2	-0.386333
3	0	65318.2	-0.38639
3	0	65408.2	-0.386264
3	0	65498.2	-0.38618
3	0	65588.2	-0.386108
3	0	65678.2	-0.386039
3	0	65768.2	-0.386035
3	0	65858.2	-0.386028
3	0	65948.2	-0.386005
3	0	66038.2	-0.385951
3	0	66128.2	-0.385864
3	0	66218.2	-0.385856
3	0	66308.2	-0.385818
3	0	66398.2	-0.385791
3	0	66488.2	-0.385738
3	0	66578.2	-0.385718
3	0	66668.2	-0.385692
3	0	66758.2	-0.385619
3	0	66848.2	-0.385592
3	0	66938.2	-0.385482
3	0	67028.2	-0.385413
3	0	67118.2	-0.385333
3	0	67208.2	-0.385321
3	0	67298.2	-0.385272
3	0	67388.2	-0.38523
3	0	67478.2	-0.385226
3	0	67568.2	-0.385111
3	0	67658.2	-0.385031
3	0	67748.2	-0.385035
3	0	67838.2	-0.384989
3	0	67928.2	-0.384924
3	0	68018.2	-0.384863
3	0	68108.2	-0.384791
3	0	68198.2	-0.384688
3	0	68235.3	-0.384718