Folder: STC_grapher/data_dir/600_B_immertest4 (part 2)

File: 600_B_06_CV_C03.mpt
EC-Lab ASCII FILE
Nb header lines : 62

Cyclic Voltammetry

Run on channel : 3 (SN 13150)
User :
Electrode connection : standard
Potential control : Ewe
Ewe ctrl range : min = -1.00 V, max = 1.00 V
Ewe,I filtering : 5 Hz
Safety Limits :
	Do not start on E overload
Channel : Floating
Acquisition started on : 07/01/2024 16:51:05.709
Loaded Setting File :  C:\Users\mAtsuhitA\Desktop\Oyafuso\20240624_???????4\1540_A.mps
Saved on :
	File : 600_B_06_CV_C03.mpr
	Directory : C:\Users\mAtsuhitA\Desktop\Oyafuso\20240624_???????4\600_B\
	Host : 192.109.209.100
Device : VSP-300 (SN 0834)
Address : 192.109.209.128
EC-Lab for windows v11.50 (software)
Internet server v11.50 (firmware)
Command interpretor v11.50 (firmware)
Electrode material :
Initial state :
Electrolyte :
Comments :
Cable : standard
Electrode surface area : 0.001 cm2
Characteristic mass : 0.001 g
Equivalent Weight : 0.000 g/eq.
Density : 0.000 g/cm3
Volume (V) : 0.001 cm3
Text export
   Mode : Standard
   Time format : Elapsed
Cycle Definition : Charge/Discharge alternance
Ei (V)              0.000
vs.                 Eoc
dE/dt               10.000
dE/dt unit          mV/s
E1 (V)              -0.050
vs.                 Eoc
Step percent        50
N                   10
E range min (V)     -1.000
E range max (V)     1.000
I Range             Auto
I Range min         Unset
I Range max         Unset
I Range init        Unset
Bandwidth           8
E2 (V)              0.000
vs.                 Ref
nc cycles           2
Reverse Scan        1
Ef (V)              0.000
vs.                 Eoc

mode	ox/red	error	control changes	counter inc.	time/s	control/V	Ewe/V	<I>/mA	cycle number	(Q-Qo)/C	I Range	step time/s	P/W
2	1	0	0	0	254503	-0.247332	-0.24781	2.05103e-06	1	0.0000000E+000	45	254503	-5.08264e-10
2	0	0	1	0	254505	-0.266104	-0.265147	-8.01534e-05	1	-8.01152e-08	44	1.7498	2.12524e-08
2	0	0	1	0	254507	-0.285101	-0.284085	-0.000138172	1	-2.8501e-07	43	3.6494	3.92526e-08
2	0	0	1	0	254509	-0.295049	-0.295725	-0.000151648	1	-5.14554e-07	43	5.0998	4.48462e-08
2	0	0	1	0	254510	-0.280052	-0.280772	-7.66745e-05	1	-6.7427e-07	43	6.5994	2.15281e-08
2	0	0	1	0	254512	-0.261055	-0.261796	-1.63772e-05	1	-7.63965e-07	44	8.4992	4.28748e-09
2	1	0	1	0	254514	-0.238059	-0.238787	5.61489e-05	1	-7.2275e-07	44	1.4498	-1.34076e-08
2	1	0	1	0	254516	-0.223062	-0.2238	0.000103299	1	-6.02969e-07	44	2.9494	-2.31184e-08
2	1	0	1	0	254518	-0.204065	-0.204824	0.000165284	1	-3.50305e-07	43	4.8492	-3.38541e-08
2	1	0	1	0	254519	-0.189068	-0.189829	0.000216955	1	-6.34343e-08	43	6.3488	-4.11844e-08
2	1	0	1	0	254521	-0.174071	-0.174833	0.000269219	1	3.03335e-07	43	7.8486	-4.70683e-08
2	1	0	1	0	254522	-0.159073	-0.159853	0.000322974	1	7.47341e-07	43	9.3484	-5.16283e-08
2	1	0	1	0	254524	-0.144076	-0.144841	0.000379554	1	1.27285e-06	43	10.848	-5.49749e-08
2	1	0	1	0	254525	-0.129079	-0.129863	0.000432883	1	1.87919e-06	43	12.3478	-5.62157e-08
2	1	0	1	0	254527	-0.114081	-0.114906	0.000492465	1	2.57094e-06	43	13.8476	-5.6587e-08
2	1	0	1	0	254528	-0.0990839	-0.0998989	0.000548766	1	3.35191e-06	43	15.3472	-5.48211e-08
2	1	0	1	0	254530	-0.0840865	-0.0849269	0.000618822	1	4.22794e-06	43	16.847	-5.25547e-08
2	1	0	1	0	254531	-0.0690892	-0.0699251	0.000683363	1	5.20203e-06	43	18.3468	-4.77842e-08
2	1	0	1	0	254533	-0.0540919	-0.0549164	0.000752325	1	6.27996e-06	43	19.8464	-4.1315e-08
2	1	0	1	0	254534	-0.0390945	-0.0399396	0.000823908	1	7.45986e-06	43	21.3462	-3.29065e-08
2	1	0	1	0	254536	-0.0240972	-0.0249419	0.000894232	1	8.75904e-06	43	22.846	-2.23039e-08
2	1	0	1	0	254537	-0.00909988	-0.00995533	0.000976207	1	1.01619e-05	43	24.3456	-9.71846e-09
2	1	0	1	1	254539	-0.00525056	-0.00436722	0.000955669	1	1.15884e-05	43	25.7808	-4.17362e-09
2	1	0	1	1	254540	-0.0202479	-0.0193449	0.000849447	1	1.29413e-05	43	27.2806	-1.64325e-08
2	1	0	1	1	254542	-0.0352452	-0.0343298	0.000770826	1	1.41589e-05	43	28.7802	-2.64623e-08
2	1	0	1	1	254543	-0.0502426	-0.0493156	0.000688672	1	1.5251e-05	43	30.28	-3.39622e-08
2	1	0	1	1	254545	-0.0652399	-0.0643132	0.000614684	1	1.62277e-05	43	31.7798	-3.95323e-08
2	1	0	1	1	254546	-0.0802372	-0.0792792	0.000546676	1	1.70958e-05	43	33.2794	-4.33401e-08
2	1	0	1	1	254548	-0.0952345	-0.0942745	0.000484238	1	1.78668e-05	43	34.7792	-4.56513e-08
2	1	0	1	1	254549	-0.110232	-0.109302	0.000421969	1	1.85444e-05	43	36.279	-4.6122e-08
2	1	0	1	1	254551	-0.125229	-0.124298	0.000363499	1	1.91332e-05	43	37.7786	-4.51823e-08
2	1	0	1	1	254552	-0.140227	-0.139238	0.000308879	1	1.96386e-05	43	39.2784	-4.30077e-08
2	1	0	1	1	254554	-0.155224	-0.154247	0.000254589	1	2.00619e-05	43	40.7782	-3.92695e-08
2	1	0	1	1	254555	-0.170221	-0.169235	0.000204348	1	2.04062e-05	43	42.2778	-3.45829e-08
2	1	0	1	1	254557	-0.185219	-0.184257	0.000157214	1	2.06774e-05	43	43.7776	-2.89676e-08
2	1	0	1	1	254558	-0.200216	-0.199246	0.000110747	1	2.08777e-05	43	45.2774	-2.20659e-08
2	1	0	1	1	254560	-0.215213	-0.214227	6.56103e-05	1	2.10094e-05	43	46.777	-1.40555e-08
2	1	0	1	1	254562	-0.23421	-0.233219	8.60073e-06	1	2.10822e-05	44	48.6768	-2.00586e-09
2	0	0	1	1	254564	-0.256656	-0.255654	-5.49795e-05	2	2.10357e-05	44	1.3448	1.40557e-08
2	0	0	1	1	254565	-0.271653	-0.270643	-9.74918e-05	2	2.09214e-05	44	2.8444	2.63855e-08
2	0	0	1	1	254567	-0.29065	-0.289629	-0.000151532	2	2.06868e-05	43	4.7442	4.3888e-08
2	0	0	1	1	254569	-0.28955	-0.290231	-0.000106297	2	2.04761e-05	43	6.1894	3.08508e-08
2	0	0	1	1	254570	-0.274553	-0.275273	-5.55735e-05	2	2.03587e-05	43	7.6892	1.52979e-08
2	1	0	1	1	254573	-0.247557	-0.24829	2.5845e-05	2	2.03155e-05	44	0.35	-6.41707e-09
2	1	0	1	1	254574	-0.23256	-0.233314	6.95097e-05	2	2.03879e-05	44	1.8496	-1.62176e-08
2	1	0	1	1	254576	-0.213564	-0.214303	0.00012632	2	2.05726e-05	43	3.7493	-2.70707e-08
2	1	0	1	1	254578	-0.198566	-0.199319	0.000172686	2	2.07969e-05	43	5.249	-3.44196e-08
2	1	0	1	1	254579	-0.183569	-0.184358	0.000220145	2	2.10908e-05	43	6.7488	-4.05856e-08
2	1	0	1	1	254581	-0.168572	-0.169327	0.00026707	2	2.14558e-05	43	8.2485	-4.52222e-08
2	1	0	1	1	254582	-0.153574	-0.15436	0.000318145	2	2.18951e-05	43	9.7482	-4.9109e-08
2	1	0	1	1	254584	-0.138577	-0.13937	0.000368539	2	2.24104e-05	43	11.248	-5.13632e-08
2	1	0	1	1	254585	-0.123579	-0.124394	0.000423244	2	2.30045e-05	43	12.7477	-5.26491e-08
2	1	0	1	1	254587	-0.108582	-0.109397	0.000477316	2	2.36786e-05	43	14.2474	-5.22168e-08
2	1	0	1	1	254588	-0.0935848	-0.0943834	0.000538126	2	2.44376e-05	43	15.7472	-5.07901e-08
2	1	0	1	1	254590	-0.0785871	-0.079398	0.000592269	2	2.52828e-05	43	17.2469	-4.7025e-08
2	1	0	1	1	254591	-0.0635902	-0.0644286	0.000656832	2	2.62148e-05	43	18.7466	-4.23187e-08
2	1	0	1	1	254593	-0.0485928	-0.0494331	0.000718688	2	2.72436e-05	43	20.2464	-3.5527e-08
2	1	0	1	1	254594	-0.0335946	-0.0344216	0.000781703	2	2.83722e-05	43	21.7461	-2.69075e-08
2	1	0	1	1	254596	-0.0185982	-0.0194433	0.000857353	2	2.96023e-05	43	23.2458	-1.66698e-08
2	1	0	1	1	254597	-0.00360085	-0.00446459	0.000929956	2	3.0939e-05	43	24.7456	-4.15187e-09
2	1	0	1	0	254599	-0.0107496	-0.00987281	0.000841493	2	3.22307e-05	43	26.1808	-8.30789e-09
2	1	0	1	0	254600	-0.0257469	-0.0248556	0.000762853	2	3.34333e-05	43	27.6804	-1.89612e-08
2	1	0	1	0	254602	-0.0407442	-0.0398119	0.000681008	2	3.45114e-05	43	29.1802	-2.71122e-08
2	1	0	1	0	254603	-0.0557416	-0.0548175	0.000609983	2	3.54793e-05	43	30.68	-3.34377e-08
[...]
2	1	0	1	0	254617	-0.190717	-0.189713	0.000123635	2	4.01611e-05	43	44.1775	-2.34551e-08
2	1	0	1	0	254618	-0.205715	-0.204716	8.0753e-05	2	4.03135e-05	43	45.6772	-1.65314e-08
2	1	0	1	0	254620	-0.224712	-0.223711	2.58526e-05	2	4.04162e-05	44	47.5769	-5.78351e-09
2	0	0	1	0	254622	-0.247382	-0.246381	-3.68762e-05	3	4.04086e-05	44	0.9673	9.08561e-09
2	0	0	1	0	254624	-0.262155	-0.261135	-7.74798e-05	3	4.03243e-05	44	2.4446	2.02327e-08
2	0	0	1	0	254626	-0.281151	-0.280118	-0.00012963	3	4.01303e-05	43	4.3442	3.63116e-08
2	0	0	1	0	254627	-0.296149	-0.295096	-0.000168245	3	3.9907e-05	43	5.844	4.96484e-08
2	0	0	1	0	254629	-0.284051	-0.284733	-8.74351e-05	3	3.97286e-05	43	7.2894	2.48956e-08
2	0	0	1	0	254631	-0.265054	-0.265759	-3.04859e-05	3	3.96165e-05	44	9.189	8.1019e-09
2	1	0	1	0	254633	-0.242058	-0.242746	3.46013e-05	3	3.96175e-05	44	0.6499	-8.39932e-09
2	1	0	1	0	254634	-0.227061	-0.227778	7.72265e-05	3	3.97013e-05	44	2.1497	-1.75905e-08
2	1	0	1	0	254636	-0.208064	-0.20877	0.000131326	3	3.98972e-05	43	4.0493	-2.7417e-08
2	1	0	1	0	254638	-0.193067	-0.193821	0.000175141	3	4.01275e-05	43	5.5491	-3.3946e-08
2	1	0	1	0	254639	-0.17807	-0.178798	0.000219795	3	4.04248e-05	43	7.0487	-3.92989e-08
2	1	0	1	0	254641	-0.163072	-0.163833	0.000266887	3	4.07902e-05	43	8.5485	-4.37249e-08
2	1	0	1	0	254642	-0.148075	-0.148837	0.00031498	3	4.12267e-05	43	10.0483	-4.68805e-08
2	1	0	1	0	254644	-0.133078	-0.133843	0.000364898	3	4.17361e-05	43	11.5479	-4.88389e-08
2	1	0	1	0	254645	-0.11808	-0.118868	0.000414815	3	4.23196e-05	43	13.0477	-4.93084e-08
2	1	0	1	0	254647	-0.103083	-0.103881	0.000466961	3	4.29815e-05	43	14.5475	-4.85083e-08
2	1	0	1	0	254648	-0.0880858	-0.0888653	0.000521747	3	4.37259e-05	43	16.0471	-4.63651e-08
2	1	0	1	0	254650	-0.0730885	-0.0738863	0.000584417	3	4.45549e-05	43	17.5469	-4.31804e-08
2	1	0	1	0	254651	-0.0580911	-0.0588834	0.0006433	3	4.54762e-05	43	19.0467	-3.78797e-08
2	1	0	1	0	254653	-0.0430938	-0.0439097	0.000700222	3	4.6481e-05	43	20.5463	-3.07465e-08
2	1	0	1	0	254654	-0.0280965	-0.0289239	0.000768272	3	4.75838e-05	43	22.0461	-2.22215e-08
2	1	0	1	0	254656	-0.0130992	-0.0139095	0.0008341	3	4.87865e-05	43	23.5459	-1.16019e-08
2	1	0	1	1	254657	-0.00125127	-0.000347872	0.000890171	3	5.00326e-05	43	24.9809	-3.09666e-10
2	1	0	1	1	254659	-0.0162486	-0.0153209	0.000763576	3	5.12496e-05	43	26.4807	-1.16987e-08
2	1	0	1	1	254660	-0.0312459	-0.0303277	0.000682014	3	5.23304e-05	43	27.9805	-2.06839e-08
2	1	0	1	1	254662	-0.0462433	-0.0453085	0.000609812	3	5.32985e-05	43	29.4801	-2.76297e-08
2	1	0	1	1	254663	-0.0612406	-0.0602854	0.000540428	3	5.41624e-05	43	30.9799	-3.25799e-08
2	1	0	1	1	254665	-0.0762379	-0.0752983	0.000477964	3	5.49281e-05	43	32.4797	-3.59899e-08
2	1	0	1	1	254666	-0.0912353	-0.0902751	0.000426296	3	5.56065e-05	43	33.9793	-3.84839e-08
2	1	0	1	1	254668	-0.106233	-0.105259	0.000367325	3	5.62006e-05	43	35.4791	-3.86643e-08
2	1	0	1	1	254669	-0.12123	-0.120276	0.000316118	3	5.67142e-05	43	36.9789	-3.80213e-08
2	1	0	1	1	254671	-0.136227	-0.135232	0.00026944	3	5.71533e-05	43	38.4785	-3.6437e-08
2	1	0	1	1	254672	-0.151225	-0.150212	0.000221106	3	5.7521e-05	43	39.9783	-3.32129e-08
2	1	0	1	1	254674	-0.166222	-0.165221	0.000177876	3	5.78207e-05	43	41.4781	-2.93889e-08
2	1	0	1	1	254675	-0.181219	-0.180189	0.000134513	3	5.80553e-05	43	42.9777	-2.42379e-08
2	1	0	1	1	254677	-0.196217	-0.195199	9.34372e-05	3	5.82261e-05	43	44.4775	-1.82389e-08
2	1	0	1	1	254678	-0.211214	-0.21019	5.19854e-05	3	5.83344e-05	43	45.9773	-1.09268e-08
2	0	0	1	1	254680	-0.23421	-0.233218	-9.02983e-06	3	5.83869e-05	45	0.000000000000000E+000	2.10592e-09
2	0	0	0	1	254682	-0.247332	-0.246317	-4.39348e-05	3	5.83539e-05	44	1.3079	1.08219e-08

File: 600_B_07_OCV_C03.mpt
EC-Lab ASCII FILE
Nb header lines : 48

Open Circuit Voltage

Run on channel : 3 (SN 13150)
User :
Electrode connection : standard
Potential control : Ewe
Ewe ctrl range : min = -1.00 V, max = 1.00 V
Ewe,I filtering : 5 Hz
Safety Limits :
	Do not start on E overload
Channel : Floating
Acquisition started on : 07/01/2024 16:51:05.709
Loaded Setting File :  C:\Users\mAtsuhitA\Desktop\Oyafuso\20240624_???????4\1540_A.mps
Saved on :
	File : 600_B_07_OCV_C03.mpr
	Directory : C:\Users\mAtsuhitA\Desktop\Oyafuso\20240624_???????4\600_B\
	Host : 192.109.209.100
Device : VSP-300 (SN 0834)
Address : 192.109.209.128
EC-Lab for windows v11.50 (software)
Internet server v11.50 (firmware)
Command interpretor v11.50 (firmware)
Electrode material :
Initial state :
Electrolyte :
Comments :
Cable : standard
Electrode surface area : 0.001 cm2
Characteristic mass : 0.001 g
Equivalent Weight : 0.000 g/eq.
Density : 0.000 g/cm3
Volume (V) : 0.001 cm3
Text export
   Mode : Standard
   Time format : Elapsed
Cycle Definition : Charge/Discharge alternance
tR (h:m:s)          0:10:0.0000
dER/dt (mV/h)       0.0
record              Ewe
dER (mV)            10.00
dtR (s)             30.0000
E range min (V)     -1.000
E range max (V)     1.000

mode	error	time/s	Ewe/V
3	0	254682	-0.246915
3	0	254712	-0.240841
3	0	254742	-0.240841
3	0	254772	-0.240963
3	0	254802	-0.241028
3	0	254832	-0.241582
3	0	254862	-0.241853
3	0	254892	-0.241055
3	0	254922	-0.241215
3	0	254952	-0.241425
3	0	254982	-0.241433
3	0	255012	-0.241658
3	0	255042	-0.241666
3	0	255072	-0.241849
3	0	255102	-0.242078
3	0	255132	-0.242105
3	0	255162	-0.242235
3	0	255192	-0.242326
3	0	255222	-0.242502
3	0	255252	-0.242697
3	0	255282	-0.242903

File: 600_B_08_CP_C03.mpt
EC-Lab ASCII FILE
Nb header lines : 57

Chronopotentiometry

Run on channel : 3 (SN 13150)
User :
Electrode connection : standard
Potential control : Ewe
Ewe ctrl range : min = -1.00 V, max = 1.00 V
Ewe,I filtering : 5 Hz
Safety Limits :
	Do not start on E overload
Channel : Floating
Acquisition started on : 07/01/2024 16:51:05.709
Loaded Setting File :  C:\Users\mAtsuhitA\Desktop\Oyafuso\20240624_???????4\1540_A.mps
Saved on :
	File : 600_B_08_CP_C03.mpr
	Directory : C:\Users\mAtsuhitA\Desktop\Oyafuso\20240624_???????4\600_B\
	Host : 192.109.209.100
Device : VSP-300 (SN 0834)
Address : 192.109.209.128
EC-Lab for windows v11.50 (software)
Internet server v11.50 (firmware)
Command interpretor v11.50 (firmware)
Electrode material :
Initial state :
Electrolyte :
Comments :
Cable : standard
Electrode surface area : 0.001 cm2
Characteristic mass : 0.001 g
Equivalent Weight : 0.000 g/eq.
Density : 0.000 g/cm3
Volume (V) : 0.001 cm3
Text export
   Mode : Standard
   Time format : Elapsed
Cycle Definition : Charge/Discharge alternance
Is                  200.000
unit Is             nA
vs.                 <None>
ts (h:m:s)          1000:40:0.0000
EM (V)              0.000
dQM                 200.133
unit dQM            uA.h
record              Ewe
dEs (mV)            10.00
dts (s)             10.0000
E range min (V)     -1.000
E range max (V)     1.000
I Range             1 uA
Bandwidth           8
goto Ns'            0
nc cycles           0

mode	ox/red	error	control changes	Ns changes	counter inc.	Ns	time/s	control/mA	Ewe/V	I/mA	dQ/C	(Q-Qo)/C	half cycle	Q charge/discharge/mA.h	I Range	Energy charge/W.h	Energy discharge/W.h	Capacitance charge/uF	Capacitance discharge/uF	step time/s	Q discharge/mA.h	Q charge/mA.h	Capacity/mA.h	Efficiency/%	cycle number	P/W
1	1	0	1	0	0	0	255282	0.0002	-0.243187	1.30992e-07	0.0000000E+000	0.0000000E+000	0	0.000000000000000E+000	43	0.000000000000000E+000	0.000000000000000E+000	0.000000000000000E+000	0.000000000000000E+000	255282	0.000000000000000E+000	0.000000000000000E+000	0.000000000000000E+000	0.0000000E+000	0.000000000000000E+000	-3.18556e-11
1	1	0	1	0	0	0	255381	0.0002	-0.17561	0.000199971	1.97639e-05	1.97639e-05	0	5.48998e-06	43	9.86913e-10	0.000000000000000E+000	343.867	0.000000000000000E+000	255381	0.000000000000000E+000	5.48998e-06	5.48998e-06	0.0000000E+000	0.000000000000000E+000	-3.51169e-08
1	1	0	1	0	0	0	255531	0.0002	-0.165984	0.000199986	4.97605e-05	4.97605e-05	0	1.38224e-05	43	2.41307e-09	0.000000000000000E+000	741.567	0.000000000000000E+000	255531	0.000000000000000E+000	1.38224e-05	1.38224e-05	0.0000000E+000	0.000000000000000E+000	-3.31944e-08
1	1	0	1	0	0	0	255681	0.0002	-0.156778	0.000199917	7.97566e-05	7.97566e-05	0	2.21546e-05	43	3.75827e-09	0.000000000000000E+000	1045.19	0.000000000000000E+000	255681	0.000000000000000E+000	2.21546e-05	2.21546e-05	0.0000000E+000	0.000000000000000E+000	-3.13425e-08
1	1	0	1	0	0	0	255831	0.0002	-0.146437	0.000200028	0.000109754	0.000109754	0	3.04871e-05	43	5.02021e-09	0.000000000000000E+000	1266.65	0.000000000000000E+000	255831	0.000000000000000E+000	3.04871e-05	3.04871e-05	0.0000000E+000	0.000000000000000E+000	-2.92915e-08
1	1	0	1	0	0	0	255981	0.0002	-0.136265	0.000199997	0.000139749	0.000139749	0	3.88192e-05	43	6.1992e-09	0.000000000000000E+000	1443.38	0.000000000000000E+000	255981	0.000000000000000E+000	3.88192e-05	3.88192e-05	0.0000000E+000	0.000000000000000E+000	-2.72526e-08
1	1	0	1	0	0	0	256131	0.0002	-0.125531	0.000200001	0.000169747	0.000169747	0	4.71519e-05	43	7.29198e-09	0.000000000000000E+000	1578.24	0.000000000000000E+000	256131	0.000000000000000E+000	4.71519e-05	4.71519e-05	0.0000000E+000	0.000000000000000E+000	-2.51064e-08
1	1	0	1	0	0	0	256281	0.0002	-0.114473	0.000200005	0.000199745	0.000199745	0	5.54849e-05	43	8.29287e-09	0.000000000000000E+000	1684.01	0.000000000000000E+000	256281	0.000000000000000E+000	5.54849e-05	5.54849e-05	0.0000000E+000	0.000000000000000E+000	-2.28952e-08
1	1	0	1	0	0	0	256431	0.0002	-0.106653	0.000200047	0.000229744	0.000229744	0	6.38178e-05	43	9.21252e-09	0.000000000000000E+000	1817.12	0.000000000000000E+000	256431	0.000000000000000E+000	6.38178e-05	6.38178e-05	0.0000000E+000	0.000000000000000E+000	-2.13356e-08
1	1	0	1	0	0	0	256581	0.0002	-0.0984468	0.000199955	0.000259742	0.000259742	0	7.21507e-05	43	1.006e-08	0.000000000000000E+000	1929.18	0.000000000000000E+000	256581	0.000000000000000E+000	7.21507e-05	7.21507e-05	0.0000000E+000	0.000000000000000E+000	-1.9685e-08
1	1	0	1	0	0	0	256731	0.0002	-0.0900577	0.000199997	0.000289742	0.000289742	0	8.04838e-05	43	1.08404e-08	0.000000000000000E+000	2025.77	0.000000000000000E+000	256731	0.000000000000000E+000	8.04838e-05	8.04838e-05	0.0000000E+000	0.000000000000000E+000	-1.80113e-08
1	1	0	1	0	0	0	256881	0.0002	-0.0834021	0.000200013	0.000319741	0.000319741	0	8.88168e-05	43	1.15632e-08	0.000000000000000E+000	2136.11	0.000000000000000E+000	256881	0.000000000000000E+000	8.88168e-05	8.88168e-05	0.0000000E+000	0.000000000000000E+000	-1.66815e-08
1	1	0	1	0	0	0	257031	0.0002	-0.0792514	0.000199978	0.000349737	0.000349737	0	9.71493e-05	43	1.22433e-08	0.000000000000000E+000	2273.47	0.000000000000000E+000	257031	0.000000000000000E+000	9.71493e-05	9.71493e-05	0.0000000E+000	0.000000000000000E+000	-1.58486e-08
1	1	0	1	0	0	0	257181	0.0002	-0.0739247	0.000200036	0.000379737	0.000379737	0	0.000105482	43	1.28812e-08	0.000000000000000E+000	2385.87	0.000000000000000E+000	257181	0.000000000000000E+000	0.000105482	0.000105482	0.0000000E+000	0.000000000000000E+000	-1.47876e-08
1	1	0	1	0	0	0	257331	0.0002	-0.0690103	0.000199975	0.000409736	0.000409736	0	0.000113815	43	1.34739e-08	0.000000000000000E+000	2497.24	0.000000000000000E+000	257331	0.000000000000000E+000	0.000113815	0.000113815	0.0000000E+000	0.000000000000000E+000	-1.38003e-08
1	1	0	1	0	0	0	257481	0.0002	-0.0659021	0.000199978	0.000439732	0.000439732	0	0.000122148	43	1.40322e-08	0.000000000000000E+000	2630.24	0.000000000000000E+000	257481	0.000000000000000E+000	0.000122148	0.000122148	0.0000000E+000	0.000000000000000E+000	-1.3179e-08
1	1	0	1	0	0	0	257631	0.0002	-0.0621065	0.000200013	0.000469731	0.000469731	0	0.000130481	43	1.45657e-08	0.000000000000000E+000	2747.3	0.000000000000000E+000	257631	0.000000000000000E+000	0.000130481	0.000130481	0.0000000E+000	0.000000000000000E+000	-1.24221e-08
1	1	0	1	0	0	0	257781	0.0002	-0.057681	0.000200005	0.000499729	0.000499729	0	0.000138814	43	1.50697e-08	0.000000000000000E+000	2849.01	0.000000000000000E+000	257781	0.000000000000000E+000	0.000138814	0.000138814	0.0000000E+000	0.000000000000000E+000	-1.15365e-08
1	1	0	1	0	0	0	257931	0.0002	-0.0555426	0.00019999	0.000529725	0.000529725	0	0.000147146	43	1.55411e-08	0.000000000000000E+000	2983.64	0.000000000000000E+000	257931	0.000000000000000E+000	0.000147146	0.000147146	0.0000000E+000	0.000000000000000E+000	-1.1108e-08
1	1	0	1	0	0	0	258081	0.0002	-0.0521862	0.000199929	0.00055972	0.00055972	0	0.000155478	43	1.59828e-08	0.000000000000000E+000	3094.09	0.000000000000000E+000	258081	0.000000000000000E+000	0.000155478	0.000155478	0.0000000E+000	0.000000000000000E+000	-1.04335e-08
[...]
1	1	0	1	0	0	0	258981	0.0002	-0.0363931	0.000199967	0.000739691	0.000739691	0	0.00020547	43	1.81567e-08	0.000000000000000E+000	3760.64	0.000000000000000E+000	258981	0.000000000000000E+000	0.00020547	0.00020547	0.0000000E+000	0.000000000000000E+000	-7.2774e-09
1	1	0	1	0	0	0	259131	0.0002	-0.0321278	0.000199975	0.000769689	0.000769689	0	0.000213802	43	1.84371e-08	0.000000000000000E+000	3830.1	0.000000000000000E+000	259131	0.000000000000000E+000	0.000213802	0.000213802	0.0000000E+000	0.000000000000000E+000	-6.42475e-09
1	1	0	1	0	0	0	259281	0.0002	-0.0289662	0.000199932	0.000799685	0.000799685	0	0.000222135	43	1.86933e-08	0.000000000000000E+000	3917.73	0.000000000000000E+000	259281	0.000000000000000E+000	0.000222135	0.000222135	0.0000000E+000	0.000000000000000E+000	-5.79127e-09
1	1	0	1	0	0	0	259431	0.0002	-0.026087	0.000199963	0.000829681	0.000829681	0	0.000230467	43	1.89232e-08	0.000000000000000E+000	4008.15	0.000000000000000E+000	259431	0.000000000000000E+000	0.000230467	0.000230467	0.0000000E+000	0.000000000000000E+000	-5.21644e-09
1	1	0	1	0	0	0	259581	0.0002	-0.0241358	0.000199929	0.000859676	0.000859676	0	0.000238799	43	1.91372e-08	0.000000000000000E+000	4114.27	0.000000000000000E+000	259581	0.000000000000000E+000	0.000238799	0.000238799	0.0000000E+000	0.000000000000000E+000	-4.82544e-09
1	1	0	1	0	0	0	259731	0.0002	-0.0214782	0.000199971	0.00088967	0.00088967	0	0.000247131	43	1.93292e-08	0.000000000000000E+000	4204.34	0.000000000000000E+000	259731	0.000000000000000E+000	0.000247131	0.000247131	0.0000000E+000	0.000000000000000E+000	-4.295e-09
1	1	0	1	0	0	0	259881	0.0002	-0.0177819	0.000199948	0.000919665	0.000919665	0	0.000255463	43	1.94918e-08	0.000000000000000E+000	4271.48	0.000000000000000E+000	259881	0.000000000000000E+000	0.000255463	0.000255463	0.0000000E+000	0.000000000000000E+000	-3.55545e-09
1	1	0	1	0	0	0	260031	0.0002	-0.0173237	0.000199952	0.000949659	0.000949659	0	0.000263794	43	1.96312e-08	0.000000000000000E+000	4401.42	0.000000000000000E+000	260031	0.000000000000000E+000	0.000263794	0.000263794	0.0000000E+000	0.000000000000000E+000	-3.4639e-09
1	1	0	1	0	0	0	260181	0.0002	-0.013658	0.000199948	0.000979654	0.000979654	0	0.000272126	43	1.97566e-08	0.000000000000000E+000	4464.59	0.000000000000000E+000	260181	0.000000000000000E+000	0.000272126	0.000272126	0.0000000E+000	0.000000000000000E+000	-2.73088e-09
1	1	0	1	0	0	0	260331	0.0002	-0.010607	0.000199971	0.00100965	0.00100965	0	0.000280458	43	1.98593e-08	0.000000000000000E+000	4538.18	0.000000000000000E+000	260331	0.000000000000000E+000	0.000280458	0.000280458	0.0000000E+000	0.000000000000000E+000	-2.12109e-09
1	1	0	1	0	0	0	260481	0.0002	-0.00695274	0.000199955	0.00103964	0.00103964	0	0.00028879	43	1.99364e-08	0.000000000000000E+000	4597.49	0.000000000000000E+000	260481	0.000000000000000E+000	0.00028879	0.00028879	0.0000000E+000	0.000000000000000E+000	-1.39024e-09
1	1	0	1	0	0	0	260631	0.0002	-0.00453948	0.000199952	0.00106964	0.00106964	0	0.000297122	43	1.99797e-08	0.000000000000000E+000	4680.19	0.000000000000000E+000	260631	0.000000000000000E+000	0.000297122	0.000297122	0.0000000E+000	0.000000000000000E+000	-9.07676e-10
1	1	0	1	0	0	0	260781	0.0002	-0.00173291	0.000200009	0.00109964	0.00109964	0	0.000305454	43	2.00042e-08	0.000000000000000E+000	4753.07	0.000000000000000E+000	260781	0.000000000000000E+000	0.000305454	0.000305454	0.0000000E+000	0.000000000000000E+000	-3.46598e-10
1	1	0	1	0	0	0	260848	0.0002	-6.04269e-05	0.000199982	0.00111298	0.00111298	0	0.000309161	43	2.00077e-08	0.000000000000000E+000	4776.22	0.000000000000000E+000	260848	0.000000000000000E+000	0.000309161	0.000309161	0.0000000E+000	0.000000000000000E+000	-1.20843e-11