Folder: STC_grapher/data_dir/600_A_immertest4 (part 2)

File: 600_A_06_CV_C04.mpt
EC-Lab ASCII FILE
Nb header lines : 62

Cyclic Voltammetry

Run on channel : 4 (SN 13148)
User :
Electrode connection : standard
Potential control : Ewe
Ewe ctrl range : min = -1.00 V, max = 1.00 V
Ewe,I filtering : 5 Hz
Safety Limits :
	Do not start on E overload
Channel : Floating
Acquisition started on : 07/01/2024 16:51:31.465
Loaded Setting File :  C:\Users\mAtsuhitA\Desktop\Oyafuso\20240624_???????4\1540_A.mps
Saved on :
	File : 600_A_06_CV_C04.mpr
	Directory : C:\Users\mAtsuhitA\Desktop\Oyafuso\20240624_???????4\600_A\
	Host : 192.109.209.100
Device : VSP-300 (SN 0960)
Address : USB
EC-Lab for windows v11.50 (software)
Internet server v11.50 (firmware)
Command interpretor v11.50 (firmware)
Electrode material :
Initial state :
Electrolyte :
Comments :
Cable : standard
Electrode surface area : 0.001 cm2
Characteristic mass : 0.001 g
Equivalent Weight : 0.000 g/eq.
Density : 0.000 g/cm3
Volume (V) : 0.001 cm3
Text export
   Mode : Standard
   Time format : Elapsed
Cycle Definition : Charge/Discharge alternance
Ei (V)              0.000
vs.                 Eoc
dE/dt               10.000
dE/dt unit          mV/s
E1 (V)              -0.050
vs.                 Eoc
Step percent        50
N                   10
E range min (V)     -1.000
E range max (V)     1.000
I Range             Auto
I Range min         Unset
I Range max         Unset
I Range init        Unset
Bandwidth           8
E2 (V)              0.000
vs.                 Ref
nc cycles           2
Reverse Scan        1
Ef (V)              0.000
vs.                 Eoc

mode	ox/red	error	control changes	counter inc.	time/s	control/V	Ewe/V	<I>/mA	cycle number	(Q-Qo)/C	I Range	step time/s	P/W
2	0	0	1	0	261101	-0.249599	-0.249469	-4.28126e-07	1	0.0000000E+000	45	261101	1.06804e-10
2	0	0	1	0	261103	-0.272361	-0.271509	-0.000186385	1	-2.38142e-07	43	261103	5.06053e-08
2	0	0	1	0	261105	-0.287353	-0.28649	-0.000274319	1	-5.83688e-07	43	261105	7.85896e-08
2	0	0	1	0	261106	-0.297298	-0.298043	-0.000260876	1	-1.0327e-06	43	261106	7.77521e-08
2	0	0	1	0	261107	-0.282306	-0.283071	-0.000145224	1	-1.32827e-06	43	261107	4.11087e-08
2	0	0	1	0	261109	-0.267314	-0.268074	-5.43736e-05	1	-1.47682e-06	43	261109	1.45762e-08
2	1	0	1	0	261112	-0.240329	-0.241071	0.000106659	1	-1.42027e-06	44	1.3492	-2.57125e-08
2	1	0	1	0	261114	-0.221339	-0.222105	0.000221589	1	-1.11366e-06	43	3.2482	-4.9216e-08
2	1	0	1	0	261115	-0.206347	-0.207106	0.000314243	1	-7.12132e-07	43	4.7474	-6.50815e-08
2	1	0	1	0	261117	-0.191355	-0.192101	0.00040856	1	-1.7046e-07	43	6.2466	-7.84849e-08
2	1	0	1	0	261118	-0.176363	-0.177117	0.000504935	1	5.14047e-07	43	7.7458	-8.94324e-08
2	1	0	1	0	261120	-0.161371	-0.162132	0.000603418	1	1.34481e-06	43	9.245	-9.78334e-08
2	1	0	1	0	261121	-0.146379	-0.147144	0.000705898	1	2.32613e-06	43	10.7442	-1.03869e-07
2	1	0	1	0	261123	-0.131388	-0.132166	0.000810678	1	3.46299e-06	43	12.2434	-1.07144e-07
2	1	0	1	0	261124	-0.116396	-0.117145	0.000921128	1	4.76109e-06	43	13.7426	-1.07905e-07
2	1	0	1	0	261126	-0.101404	-0.102169	0.00103473	1	6.22621e-06	43	15.2417	-1.05717e-07
2	1	0	1	0	261127	-0.0824139	-0.0832236	0.00118672	1	8.32918e-06	42	17.1406	-9.87631e-08
2	1	0	1	0	261129	-0.067422	-0.0682359	0.00131058	1	1.02001e-05	42	18.6398	-8.94287e-08
2	1	0	1	0	261130	-0.0524301	-0.0532384	0.00143957	1	1.22613e-05	42	20.139	-7.66403e-08
2	1	0	1	0	261132	-0.0374382	-0.038234	0.00157605	1	1.45214e-05	42	21.6382	-6.02585e-08
2	1	0	1	0	261133	-0.0224463	-0.023265	0.00171588	1	1.6988e-05	42	23.1374	-3.99199e-08
2	1	0	1	0	261135	-0.00745439	-0.00826977	0.00186097	1	1.96681e-05	42	24.6366	-1.53898e-08
2	1	0	1	1	261136	-0.00675477	-0.00591363	0.00176851	1	2.23287e-05	42	26.0614	-1.04583e-08
2	1	0	1	1	261138	-0.0217467	-0.0209203	0.00157086	1	2.4827e-05	42	27.5606	-3.2863e-08
2	1	0	1	1	261139	-0.0367386	-0.0358706	0.00139938	1	2.70501e-05	42	29.0598	-5.01968e-08
2	1	0	1	1	261141	-0.0517305	-0.0509119	0.00124539	1	2.90302e-05	42	30.559	-6.34052e-08
2	1	0	1	1	261142	-0.0667224	-0.0658643	0.00110544	1	3.07905e-05	42	32.0582	-7.2809e-08
2	1	0	1	1	261144	-0.0817143	-0.0808698	0.00097856	1	3.23511e-05	42	33.5574	-7.91359e-08
2	1	0	1	1	261145	-0.0967062	-0.0958523	0.000859991	1	3.37275e-05	42	35.0566	-8.24321e-08
2	1	0	1	1	261147	-0.111698	-0.110825	0.000749793	1	3.49332e-05	42	36.5558	-8.30956e-08
2	1	0	1	1	261148	-0.12669	-0.125819	0.000647672	1	3.59801e-05	42	38.055	-8.14895e-08
2	1	0	1	1	261150	-0.141682	-0.140839	0.000551631	1	3.68778e-05	42	39.5542	-7.76911e-08
2	1	0	1	1	261151	-0.156673	-0.155839	0.000460142	1	3.76349e-05	42	41.0533	-7.17081e-08
2	1	0	1	1	261153	-0.175664	-0.174785	0.000352197	1	3.841e-05	43	42.9522	-6.15587e-08
2	1	0	1	1	261155	-0.190656	-0.189793	0.000268897	1	3.8875e-05	43	44.4514	-5.10347e-08
2	1	0	1	1	261156	-0.205647	-0.204814	0.000187866	1	3.92172e-05	43	45.9506	-3.84775e-08
2	1	0	1	1	261158	-0.220639	-0.219795	0.000108773	1	3.94393e-05	43	47.4498	-2.39077e-08
2	1	0	1	1	261160	-0.239629	-0.238758	1.14389e-05	1	3.95591e-05	44	49.3488	-2.73113e-09
2	0	0	1	1	261162	-0.261817	-0.260969	-0.000101757	2	3.9468e-05	44	1.9689	2.65555e-08
2	0	0	1	1	261164	-0.280807	-0.279969	-0.000201829	2	3.91837e-05	43	3.8679	5.65058e-08
2	0	0	1	1	261165	-0.295799	-0.294955	-0.000280629	2	3.88222e-05	43	5.3671	8.27728e-08
2	0	0	1	1	261167	-0.288803	-0.28954	-0.000147523	2	3.85014e-05	43	6.8219	4.27138e-08
2	0	0	1	1	261168	-0.273811	-0.274555	-6.12343e-05	2	3.83464e-05	43	8.3211	1.68122e-08
2	1	0	1	1	261171	-0.246825	-0.247601	8.29067e-05	2	3.83642e-05	44	1.1994	-2.05278e-08
2	1	0	1	1	261173	-0.227835	-0.228592	0.000183336	2	3.86128e-05	43	3.0984	-4.19091e-08
2	1	0	1	1	261174	-0.212844	-0.213638	0.000263933	2	3.89483e-05	43	4.5976	-5.6386e-08
2	1	0	1	1	261176	-0.197852	-0.198584	0.000346874	2	3.94064e-05	43	6.0968	-6.88837e-08
2	1	0	1	1	261177	-0.18286	-0.183619	0.000431572	2	3.99896e-05	43	7.5959	-7.92449e-08
2	1	0	1	1	261179	-0.167867	-0.168616	0.000518139	2	4.0701e-05	43	9.0951	-8.73666e-08
2	1	0	1	1	261180	-0.152876	-0.153625	0.000606836	2	4.15437e-05	43	10.5942	-9.32249e-08
2	1	0	1	1	261182	-0.137884	-0.138619	0.000699385	2	4.25228e-05	43	12.0934	-9.6948e-08
2	1	0	1	1	261183	-0.122892	-0.123644	0.000798829	2	4.36463e-05	43	13.5926	-9.87702e-08
2	1	0	1	1	261185	-0.1079	-0.108634	0.000896363	2	4.49162e-05	43	15.0918	-9.73756e-08
2	1	0	1	1	261186	-0.0929083	-0.0936567	0.00100152	2	4.63383e-05	43	16.591	-9.37989e-08
2	1	0	1	1	261188	-0.0739185	-0.0747177	0.00114335	2	4.83645e-05	42	18.49	-8.54284e-08
2	1	0	1	1	261190	-0.0589266	-0.0597035	0.00125377	2	5.01597e-05	42	19.9892	-7.48542e-08
2	1	0	1	1	261191	-0.0439347	-0.044728	0.00137244	2	5.21279e-05	42	21.4884	-6.13864e-08
2	1	0	1	1	261193	-0.0289428	-0.0297459	0.00149754	2	5.42785e-05	42	22.9876	-4.45457e-08
2	1	0	1	1	261194	-0.0139509	-0.0147504	0.00162614	2	5.66201e-05	42	24.4868	-2.39863e-08
2	1	0	1	0	261196	-0.000258271	-0.000513681	0.00175269	2	5.90284e-05	42	25.9116	-9.00326e-10
2	1	0	1	0	261197	-0.0152502	-0.0144049	0.00148737	2	6.14076e-05	42	27.4108	-2.14253e-08
2	1	0	1	0	261199	-0.0302421	-0.0293968	0.00132564	2	6.35126e-05	42	28.91	-3.89697e-08
2	1	0	1	0	261200	-0.045234	-0.0443812	0.00118154	2	6.53893e-05	42	30.4092	-5.24384e-08
2	1	0	1	0	261202	-0.0602259	-0.0593741	0.0010507	2	6.70607e-05	42	31.9084	-6.23844e-08
2	1	0	1	0	261203	-0.0752176	-0.0743856	0.000931324	2	6.85451e-05	42	33.4075	-6.92771e-08
[...]
2	1	0	1	0	261216	-0.199151	-0.198284	0.000195812	2	7.51964e-05	43	45.8008	-3.88263e-08
2	1	0	1	0	261217	-0.214143	-0.213267	0.00012168	2	7.54342e-05	43	47.3	-2.59504e-08
2	1	0	1	0	261219	-0.229135	-0.228297	4.82734e-05	2	7.55615e-05	43	48.7992	-1.10207e-08
2	0	0	1	0	261221	-0.255421	-0.254571	-7.96302e-05	3	7.55323e-05	44	1.3293	2.02715e-08
2	0	0	1	0	261223	-0.27441	-0.273547	-0.000173763	3	7.52956e-05	43	3.2283	4.75323e-08
2	0	0	1	0	261225	-0.289402	-0.288545	-0.000248298	3	7.49794e-05	43	4.7275	7.16451e-08
2	0	0	1	0	261226	-0.295299	-0.296022	-0.000193526	3	7.46005e-05	43	6.1723	5.7288e-08
2	0	0	1	0	261228	-0.280307	-0.281052	-0.00010027	3	7.43847e-05	43	7.6715	2.81811e-08
2	0	0	1	0	261230	-0.25732	-0.258058	1.93028e-05	3	7.42897e-05	44	0.000000000000000E+000	-4.98123e-09
2	1	0	1	0	261232	-0.234332	-0.235086	0.000135332	3	7.44549e-05	43	2.2987	-3.18146e-08
2	1	0	1	0	261234	-0.21934	-0.220106	0.000211177	3	7.47145e-05	43	3.7979	-4.64813e-08
2	1	0	1	0	261235	-0.204348	-0.205074	0.000287986	3	7.50886e-05	43	5.2971	-5.90586e-08
2	1	0	1	0	261237	-0.189356	-0.190101	0.000366623	3	7.55793e-05	43	6.7963	-6.96954e-08
2	1	0	1	0	261238	-0.174364	-0.175114	0.000446935	3	7.61888e-05	43	8.2955	-7.82646e-08
2	1	0	1	0	261240	-0.159372	-0.160121	0.000529633	3	7.69204e-05	43	9.7947	-8.48055e-08
2	1	0	1	0	261241	-0.14438	-0.145147	0.000614797	3	7.77775e-05	43	11.2939	-8.92357e-08
2	1	0	1	0	261243	-0.129389	-0.130128	0.000702721	3	7.87644e-05	43	12.7931	-9.14434e-08
2	1	0	1	0	261244	-0.114397	-0.115161	0.000793945	3	7.98862e-05	43	14.2923	-9.14317e-08
2	1	0	1	0	261246	-0.0994048	-0.100144	0.000890694	3	8.11485e-05	43	15.7915	-8.9198e-08
2	1	0	1	0	261247	-0.0844129	-0.0851296	0.000990112	3	8.25571e-05	43	17.2907	-8.42878e-08
2	1	0	1	0	261249	-0.0694209	-0.0701579	0.00109364	3	8.41182e-05	43	18.7899	-7.67271e-08
2	1	0	1	0	261251	-0.0504312	-0.0512237	0.00123389	3	8.63263e-05	42	20.6889	-6.32046e-08
2	1	0	1	0	261252	-0.0354393	-0.0362217	0.00134697	3	8.82603e-05	42	22.1881	-4.87894e-08
2	1	0	1	0	261254	-0.0204474	-0.0212294	0.00146504	3	9.03678e-05	42	23.6873	-3.1102e-08
2	1	0	1	0	261255	-0.00545547	-0.00624283	0.00158796	3	9.26556e-05	42	25.1865	-9.91337e-09
2	1	0	1	1	261256	-0.00875458	-0.00792962	0.00145363	3	9.48711e-05	42	26.6112	-1.15267e-08
2	1	0	1	1	261258	-0.0237456	-0.0229085	0.00128948	3	9.69231e-05	42	28.1103	-2.95401e-08
2	1	0	1	1	261259	-0.0387375	-0.0378876	0.00114961	3	9.87494e-05	42	29.6095	-4.35559e-08
2	1	0	1	1	261261	-0.0537294	-0.0528722	0.00102288	3	0.000100376	42	31.1087	-5.4082e-08
2	1	0	1	1	261262	-0.0687213	-0.0678431	0.000907652	3	0.000101822	42	32.6079	-6.1578e-08
2	1	0	1	1	261264	-0.0837132	-0.082843	0.000801845	3	0.000103102	42	34.1071	-6.64273e-08
2	1	0	1	1	261265	-0.0987052	-0.0978533	0.00070412	3	0.00010423	42	35.6063	-6.89005e-08
2	1	0	1	1	261267	-0.113697	-0.112828	0.000612296	3	0.000105216	42	37.1055	-6.90844e-08
2	1	0	1	1	261268	-0.128689	-0.127839	0.000526388	3	0.000106068	42	38.6047	-6.72928e-08
2	1	0	1	1	261270	-0.14568	-0.144808	0.000434848	3	0.000106884	42	40.3038	-6.29696e-08
2	1	0	1	1	261272	-0.162671	-0.161771	0.00034891	3	0.000107554	43	42.0029	-5.64436e-08
2	1	0	1	1	261273	-0.177663	-0.176784	0.000275299	3	0.000108021	43	43.5021	-4.86685e-08
2	1	0	1	1	261275	-0.192654	-0.191797	0.000203547	3	0.00010838	43	45.0013	-3.90396e-08
2	1	0	1	1	261276	-0.207646	-0.206752	0.000133023	3	0.000108632	43	46.5005	-2.75027e-08
2	1	0	1	1	261278	-0.222638	-0.221762	6.33407e-05	3	0.000108779	43	47.9997	-1.40466e-08
2	0	0	1	1	261281	-0.249474	-0.248614	-6.1495e-05	3	0.000108793	44	0.8845	1.52885e-08
2	0	0	0	1	261281	-0.249599	-0.248667	-6.19683e-05	3	0.000108793	44	0.8943	1.54095e-08

File: 600_A_07_OCV_C04.mpt
EC-Lab ASCII FILE
Nb header lines : 48

Open Circuit Voltage

Run on channel : 4 (SN 13148)
User :
Electrode connection : standard
Potential control : Ewe
Ewe ctrl range : min = -1.00 V, max = 1.00 V
Ewe,I filtering : 5 Hz
Safety Limits :
	Do not start on E overload
Channel : Floating
Acquisition started on : 07/01/2024 16:51:31.465
Loaded Setting File :  C:\Users\mAtsuhitA\Desktop\Oyafuso\20240624_???????4\1540_A.mps
Saved on :
	File : 600_A_07_OCV_C04.mpr
	Directory : C:\Users\mAtsuhitA\Desktop\Oyafuso\20240624_???????4\600_A\
	Host : 192.109.209.100
Device : VSP-300 (SN 0960)
Address : USB
EC-Lab for windows v11.50 (software)
Internet server v11.50 (firmware)
Command interpretor v11.50 (firmware)
Electrode material :
Initial state :
Electrolyte :
Comments :
Cable : standard
Electrode surface area : 0.001 cm2
Characteristic mass : 0.001 g
Equivalent Weight : 0.000 g/eq.
Density : 0.000 g/cm3
Volume (V) : 0.001 cm3
Text export
   Mode : Standard
   Time format : Elapsed
Cycle Definition : Charge/Discharge alternance
tR (h:m:s)          0:10:0.0000
dER/dt (mV/h)       0.0
record              Ewe
dER (mV)            10.00
dtR (s)             30.0000
E range min (V)     -1.000
E range max (V)     1.000

mode	error	time/s	Ewe/V
3	0	261281	-0.249126
3	0	261311	-0.246162
3	0	261341	-0.244983
3	0	261371	-0.244505
3	0	261401	-0.244356
3	0	261431	-0.244356
3	0	261461	-0.244341
3	0	261491	-0.244433
3	0	261521	-0.244524
3	0	261551	-0.244666
3	0	261581	-0.244818
3	0	261611	-0.244948
3	0	261641	-0.245162
3	0	261671	-0.245334
3	0	261701	-0.245494
3	0	261731	-0.245765
3	0	261761	-0.245723
3	0	261791	-0.245796
3	0	261821	-0.245834
3	0	261851	-0.24583
3	0	261881	-0.245895

File: 600_A_08_CP_C04.mpt
EC-Lab ASCII FILE
Nb header lines : 57

Chronopotentiometry

Run on channel : 4 (SN 13148)
User :
Electrode connection : standard
Potential control : Ewe
Ewe ctrl range : min = -1.00 V, max = 1.00 V
Ewe,I filtering : 5 Hz
Safety Limits :
	Do not start on E overload
Channel : Floating
Acquisition started on : 07/01/2024 16:51:31.465
Loaded Setting File :  C:\Users\mAtsuhitA\Desktop\Oyafuso\20240624_???????4\1540_A.mps
Saved on :
	File : 600_A_08_CP_C04.mpr
	Directory : C:\Users\mAtsuhitA\Desktop\Oyafuso\20240624_???????4\600_A\
	Host : 192.109.209.100
Device : VSP-300 (SN 0960)
Address : USB
EC-Lab for windows v11.50 (software)
Internet server v11.50 (firmware)
Command interpretor v11.50 (firmware)
Electrode material :
Initial state :
Electrolyte :
Comments :
Cable : standard
Electrode surface area : 0.001 cm2
Characteristic mass : 0.001 g
Equivalent Weight : 0.000 g/eq.
Density : 0.000 g/cm3
Volume (V) : 0.001 cm3
Text export
   Mode : Standard
   Time format : Elapsed
Cycle Definition : Charge/Discharge alternance
Is                  200.000
unit Is             nA
vs.                 <None>
ts (h:m:s)          1000:40:0.0000
EM (V)              0.000
dQM                 200.133
unit dQM            uA.h
record              Ewe
dEs (mV)            10.00
dts (s)             10.0000
E range min (V)     -1.000
E range max (V)     1.000
I Range             1 uA
Bandwidth           8
goto Ns'            0
nc cycles           0

mode	ox/red	error	control changes	Ns changes	counter inc.	Ns	time/s	control/mA	Ewe/V	I/mA	dQ/C	(Q-Qo)/C	half cycle	Q charge/discharge/mA.h	I Range	Energy charge/W.h	Energy discharge/W.h	Capacitance charge/uF	Capacitance discharge/uF	step time/s	Q discharge/mA.h	Q charge/mA.h	Capacity/mA.h	Efficiency/%	cycle number	P/W
1	1	0	1	0	0	0	261881	0.0002	-0.245828	-8.98237e-07	0.0000000E+000	0.0000000E+000	0	0.000000000000000E+000	43	0.000000000000000E+000	0.000000000000000E+000	0.000000000000000E+000	0.000000000000000E+000	261881	0.000000000000000E+000	0.000000000000000E+000	0.000000000000000E+000	0.0000000E+000	0.000000000000000E+000	2.20812e-10
1	1	0	1	0	0	0	263383	0.0002	-0.192328	0.000199699	0.00030004	0.00030004	0	8.33444e-05	43	1.66019e-08	0.000000000000000E+000	6916.09	0.000000000000000E+000	263383	0.000000000000000E+000	8.33444e-05	8.33444e-05	0.0000000E+000	0.000000000000000E+000	-3.84078e-08
1	1	0	1	0	0	0	264913	0.0002	-0.186968	0.000199749	0.000605668	0.000605668	0	0.000168241	43	3.26522e-08	0.000000000000000E+000	12425.6	0.000000000000000E+000	264913	0.000000000000000E+000	0.000168241	0.000168241	0.0000000E+000	0.000000000000000E+000	-3.73466e-08
1	1	0	1	0	0	0	266443	0.0002	-0.184001	0.000199726	0.000911283	0.000911283	0	0.000253134	43	4.83975e-08	0.000000000000000E+000	17622.9	0.000000000000000E+000	266443	0.000000000000000E+000	0.000253134	0.000253134	0.0000000E+000	0.000000000000000E+000	-3.67498e-08
1	1	0	1	0	0	0	267973	0.0002	-0.185487	0.000199665	0.0012168	0.0012168	0	0.000338	43	6.4068e-08	0.000000000000000E+000	24227.1	0.000000000000000E+000	267973	0.000000000000000E+000	0.000338	0.000338	0.0000000E+000	0.000000000000000E+000	-3.70351e-08
1	1	0	1	0	0	0	269503	0.0002	-0.188873	0.000199661	0.00152226	0.00152226	0	0.00042285	43	7.99436e-08	0.000000000000000E+000	32500.4	0.000000000000000E+000	269503	0.000000000000000E+000	0.00042285	0.00042285	0.0000000E+000	0.000000000000000E+000	-3.77106e-08
1	1	0	1	0	0	0	271033	0.0002	-0.191565	0.000199615	0.0018277	0.0018277	0	0.000507695	43	9.60845e-08	0.000000000000000E+000	41400.8	0.000000000000000E+000	271033	0.000000000000000E+000	0.000507695	0.000507695	0.0000000E+000	0.000000000000000E+000	-3.82392e-08
1	1	0	1	0	0	0	272563	0.0002	-0.192439	0.000199588	0.00213313	0.00213313	0	0.000592536	43	1.12365e-07	0.000000000000000E+000	49295.7	0.000000000000000E+000	272563	0.000000000000000E+000	0.000592536	0.000592536	0.0000000E+000	0.000000000000000E+000	-3.84086e-08
1	1	0	1	0	0	0	274093	0.0002	-0.193283	0.000199634	0.00243856	0.00243856	0	0.000677377	43	1.28731e-07	0.000000000000000E+000	57474.6	0.000000000000000E+000	274093	0.000000000000000E+000	0.000677377	0.000677377	0.0000000E+000	0.000000000000000E+000	-3.85859e-08
1	1	0	1	0	0	0	275623	0.0002	-0.194092	0.000199596	0.00274397	0.00274397	0	0.000762215	43	1.45161e-07	0.000000000000000E+000	65930.8	0.000000000000000E+000	275623	0.000000000000000E+000	0.000762215	0.000762215	0.0000000E+000	0.000000000000000E+000	-3.874e-08
1	1	0	1	0	0	0	277153	0.0002	-0.194634	0.0001996	0.00304938	0.00304938	0	0.000847049	43	1.6167e-07	0.000000000000000E+000	74235.9	0.000000000000000E+000	277153	0.000000000000000E+000	0.000847049	0.000847049	0.0000000E+000	0.000000000000000E+000	-3.8849e-08
1	1	0	1	0	0	0	278683	0.0002	-0.19426	0.000199611	0.00335477	0.00335477	0	0.000931881	43	1.78154e-07	0.000000000000000E+000	80933.5	0.000000000000000E+000	278683	0.000000000000000E+000	0.000931881	0.000931881	0.0000000E+000	0.000000000000000E+000	-3.87765e-08
1	1	0	1	0	0	0	280213	0.0002	-0.193252	0.000199577	0.00366017	0.00366017	0	0.00101671	43	1.94572e-07	0.000000000000000E+000	86204.9	0.000000000000000E+000	280213	0.000000000000000E+000	0.00101671	0.00101671	0.0000000E+000	0.000000000000000E+000	-3.85687e-08
1	1	0	1	0	0	0	281743	0.0002	-0.193008	0.000199565	0.00396555	0.00396555	0	0.00110154	43	2.10969e-07	0.000000000000000E+000	92862.8	0.000000000000000E+000	281743	0.000000000000000E+000	0.00110154	0.00110154	0.0000000E+000	0.000000000000000E+000	-3.85177e-08
1	1	0	1	0	0	0	283273	0.0002	-0.192683	0.000199615	0.00427092	0.00427092	0	0.00118637	43	2.27363e-07	0.000000000000000E+000	99259.5	0.000000000000000E+000	283273	0.000000000000000E+000	0.00118637	0.00118637	0.0000000E+000	0.000000000000000E+000	-3.84625e-08
1	1	0	1	0	0	0	284803	0.0002	-0.192748	0.0001996	0.00457629	0.00457629	0	0.00127119	43	2.43705e-07	0.000000000000000E+000	106517	0.000000000000000E+000	284803	0.000000000000000E+000	0.00127119	0.00127119	0.0000000E+000	0.000000000000000E+000	-3.84725e-08
1	1	0	1	0	0	0	286333	0.0002	-0.191901	0.000199588	0.00488167	0.00488167	0	0.00135602	43	2.60033e-07	0.000000000000000E+000	111427	0.000000000000000E+000	286333	0.000000000000000E+000	0.00135602	0.00135602	0.0000000E+000	0.000000000000000E+000	-3.83012e-08
1	1	0	1	0	0	0	287863	0.0002	-0.190458	0.0001996	0.00518705	0.00518705	0	0.00144085	43	2.76276e-07	0.000000000000000E+000	114621	0.000000000000000E+000	287863	0.000000000000000E+000	0.00144085	0.00144085	0.0000000E+000	0.000000000000000E+000	-3.80153e-08
1	1	0	1	0	0	0	289393	0.0002	-0.188892	0.000199607	0.00549242	0.00549242	0	0.00152567	43	2.92388e-07	0.000000000000000E+000	117312	0.000000000000000E+000	289393	0.000000000000000E+000	0.00152567	0.00152567	0.0000000E+000	0.000000000000000E+000	-3.77043e-08
1	1	0	1	0	0	0	290923	0.0002	-0.188155	0.000199569	0.0057978	0.0057978	0	0.0016105	43	3.08381e-07	0.000000000000000E+000	121915	0.000000000000000E+000	290923	0.000000000000000E+000	0.0016105	0.0016105	0.0000000E+000	0.000000000000000E+000	-3.755e-08
1	1	0	1	0	0	0	292453	0.0002	-0.187583	0.000199615	0.00610318	0.00610318	0	0.00169533	43	3.24319e-07	0.000000000000000E+000	126809	0.000000000000000E+000	292453	0.000000000000000E+000	0.00169533	0.00169533	0.0000000E+000	0.000000000000000E+000	-3.74443e-08
[...]
1	1	0	1	0	0	0	301633	0.0002	-0.181325	0.000199604	0.00793541	0.00793541	0	0.00220428	43	4.18287e-07	0.000000000000000E+000	145908	0.000000000000000E+000	301633	0.000000000000000E+000	0.00220428	0.00220428	0.0000000E+000	0.000000000000000E+000	-3.61931e-08
1	1	0	1	0	0	0	303163	0.0002	-0.178591	0.000199592	0.00824078	0.00824078	0	0.00228911	43	4.33586e-07	0.000000000000000E+000	144271	0.000000000000000E+000	303163	0.000000000000000E+000	0.00228911	0.00228911	0.0000000E+000	0.000000000000000E+000	-3.56454e-08
1	1	0	1	0	0	0	304693	0.0002	-0.176266	0.000199611	0.00854614	0.00854614	0	0.00237393	43	4.48635e-07	0.000000000000000E+000	143765	0.000000000000000E+000	304693	0.000000000000000E+000	0.00237393	0.00237393	0.0000000E+000	0.000000000000000E+000	-3.51847e-08
1	1	0	1	0	0	0	306223	0.0002	-0.173502	0.00019952	0.00885149	0.00885149	0	0.00245875	43	4.6348e-07	0.000000000000000E+000	142285	0.000000000000000E+000	306223	0.000000000000000E+000	0.00245875	0.00245875	0.0000000E+000	0.000000000000000E+000	-3.4617e-08
1	1	0	1	0	0	0	307754	0.0002	-0.171684	0.000199546	0.00915683	0.00915683	0	0.00254356	43	4.78114e-07	0.000000000000000E+000	143015	0.000000000000000E+000	307754	0.000000000000000E+000	0.00254356	0.00254356	0.0000000E+000	0.000000000000000E+000	-3.4259e-08
1	1	0	1	0	0	0	309284	0.0002	-0.169562	0.000199554	0.00946216	0.00946216	0	0.00262838	43	4.92587e-07	0.000000000000000E+000	143042	0.000000000000000E+000	309284	0.000000000000000E+000	0.00262838	0.00262838	0.0000000E+000	0.000000000000000E+000	-3.38367e-08
1	1	0	1	0	0	0	310814	0.0002	-0.167572	0.000199516	0.0097675	0.0097675	0	0.00271319	43	5.06876e-07	0.000000000000000E+000	143347	0.000000000000000E+000	310814	0.000000000000000E+000	0.00271319	0.00271319	0.0000000E+000	0.000000000000000E+000	-3.34333e-08
1	1	0	1	0	0	0	312344	0.0002	-0.165885	0.000199558	0.0100728	0.0100728	0	0.00279801	43	5.21014e-07	0.000000000000000E+000	144255	0.000000000000000E+000	312344	0.000000000000000E+000	0.00279801	0.00279801	0.0000000E+000	0.000000000000000E+000	-3.31036e-08
1	1	0	1	0	0	0	313874	0.0002	-0.165675	0.000199573	0.0103782	0.0103782	0	0.00288283	43	5.3505e-07	0.000000000000000E+000	148182	0.000000000000000E+000	313874	0.000000000000000E+000	0.00288283	0.00288283	0.0000000E+000	0.000000000000000E+000	-3.30642e-08
1	1	0	1	0	0	0	315404	0.0002	-0.163926	0.000199565	0.0106835	0.0106835	0	0.00296764	43	5.49024e-07	0.000000000000000E+000	148826	0.000000000000000E+000	315404	0.000000000000000E+000	0.00296764	0.00296764	0.0000000E+000	0.000000000000000E+000	-3.2714e-08
1	1	0	1	0	0	0	316934	0.0002	-0.162403	0.000199573	0.0109888	0.0109888	0	0.00305245	43	5.62852e-07	0.000000000000000E+000	149898	0.000000000000000E+000	316934	0.000000000000000E+000	0.00305245	0.00305245	0.0000000E+000	0.000000000000000E+000	-3.24112e-08
1	1	0	1	0	0	0	318464	0.0002	-0.158871	0.000199615	0.0112942	0.0112942	0	0.00313727	43	5.76488e-07	0.000000000000000E+000	146983	0.000000000000000E+000	318464	0.000000000000000E+000	0.00313727	0.00313727	0.0000000E+000	0.000000000000000E+000	-3.17131e-08
1	1	0	1	0	0	0	319994	0.0002	-0.144886	0.00019973	0.0115997	0.0115997	0	0.00322214	43	5.89405e-07	0.000000000000000E+000	127714	0.000000000000000E+000	319994	0.000000000000000E+000	0.00322214	0.00322214	0.0000000E+000	0.000000000000000E+000	-2.8938e-08
1	1	0	1	0	0	0	321220	0.0002	0.000805867	0.000199665	0.0118446	0.0118446	0	0.00329017	43	5.99023e-07	0.000000000000000E+000	50079.3	0.000000000000000E+000	321220	0.000000000000000E+000	0.00329017	0.00329017	0.0000000E+000	0.000000000000000E+000	1.60903e-10