Folder: STC_grapher/data_dir/600_A_immertest4

File: 600_A_02_CV_C04.mpt
EC-Lab ASCII FILE
Nb header lines : 62

Cyclic Voltammetry

Run on channel : 4 (SN 13148)
User :
Electrode connection : standard
Potential control : Ewe
Ewe ctrl range : min = -1.00 V, max = 1.00 V
Ewe,I filtering : 5 Hz
Safety Limits :
	Do not start on E overload
Channel : Floating
Acquisition started on : 07/01/2024 16:51:31.465
Loaded Setting File :  C:\Users\mAtsuhitA\Desktop\Oyafuso\20240624_???????4\1540_A.mps
Saved on :
	File : 600_A_02_CV_C04.mpr
	Directory : C:\Users\mAtsuhitA\Desktop\Oyafuso\20240624_???????4\600_A\
	Host : 192.109.209.100
Device : VSP-300 (SN 0960)
Address : USB
EC-Lab for windows v11.50 (software)
Internet server v11.50 (firmware)
Command interpretor v11.50 (firmware)
Electrode material :
Initial state :
Electrolyte :
Comments :
Cable : standard
Electrode surface area : 0.001 cm2
Characteristic mass : 0.001 g
Equivalent Weight : 0.000 g/eq.
Density : 0.000 g/cm3
Volume (V) : 0.001 cm3
Text export
   Mode : Standard
   Time format : Elapsed
Cycle Definition : Charge/Discharge alternance
Ei (V)              0.000
vs.                 Eoc
dE/dt               10.000
dE/dt unit          mV/s
E1 (V)              -0.050
vs.                 Eoc
Step percent        50
N                   10
E range min (V)     -1.000
E range max (V)     1.000
I Range             Auto
I Range min         Unset
I Range max         Unset
I Range init        Unset
Bandwidth           8
E2 (V)              0.000
vs.                 Ref
nc cycles           2
Reverse Scan        1
Ef (V)              0.000
vs.                 Eoc

mode	ox/red	error	control changes	counter inc.	time/s	control/V	Ewe/V	<I>/mA	cycle number	(Q-Qo)/C	I Range	step time/s	P/W
2	1	1	1	0	7201.26	-0.256995	-0.255959	0.00207291	1	0.0000000E+000	42	7201.26	-5.30581e-07
2	0	0	1	0	7203.13	-0.27576	-0.274941	-0.000422748	1	5.09539e-07	43	0.7996	1.16231e-07
2	0	0	1	0	7204.63	-0.290752	-0.289981	-0.000763535	1	-4.0826e-07	43	2.2988	2.21411e-07
2	0	0	1	0	7206.09	-0.284755	-0.2856	-0.000616537	1	-1.45995e-06	43	3.7534	1.76083e-07
2	0	0	1	0	7207.58	-0.269763	-0.270588	-0.000474575	1	-2.27384e-06	43	5.2526	1.28414e-07
2	0	0	1	0	7209.08	-0.254771	-0.255572	-0.000351817	1	-2.89211e-06	43	6.7518	8.99145e-08
2	0	0	1	0	7210.58	-0.239779	-0.240604	-0.000231258	1	-3.32971e-06	43	8.251	5.56416e-08
2	0	0	1	0	7212.08	-0.224787	-0.225597	-0.000108507	1	-3.58442e-06	43	9.7502	2.44789e-08
2	1	0	1	0	7215.18	-0.193804	-0.194593	0.000153393	1	-3.55501e-06	43	1.3993	-2.98493e-08
2	1	0	1	0	7216.68	-0.178812	-0.179609	0.000306936	1	-3.21148e-06	43	2.8985	-5.51283e-08
2	1	0	1	0	7218.18	-0.16382	-0.164623	0.000473362	1	-2.62786e-06	43	4.3977	-7.79263e-08
2	1	0	1	0	7219.68	-0.148828	-0.149607	0.000653778	1	-1.78428e-06	43	5.8969	-9.78101e-08
2	1	0	1	0	7221.18	-0.133837	-0.134602	0.000848628	1	-6.59669e-07	43	7.396	-1.14227e-07
2	1	0	1	0	7222.68	-0.118844	-0.119631	0.00105975	1	7.69027e-07	43	8.8952	-1.26779e-07
2	1	0	1	0	7224.58	-0.0998545	-0.100678	0.0013514	1	3.04472e-06	42	10.7941	-1.36057e-07
2	1	0	1	0	7226.07	-0.0848626	-0.0856851	0.00159957	1	5.25461e-06	42	12.2933	-1.37059e-07
2	1	0	1	0	7227.57	-0.0698707	-0.0706884	0.00186566	1	7.85033e-06	42	13.7925	-1.3188e-07
2	1	0	1	0	7229.07	-0.0548788	-0.0557031	0.00214972	1	1.08582e-05	42	15.2917	-1.19746e-07
2	1	0	1	0	7230.57	-0.0398869	-0.0407174	0.00244788	1	1.43037e-05	42	16.7909	-9.96715e-08
2	1	0	1	0	7232.07	-0.024895	-0.0257223	0.00276518	1	1.82095e-05	42	18.2901	-7.11268e-08
2	1	0	1	0	7233.57	-0.00990307	-0.0107256	0.0030941	1	2.26002e-05	42	19.7893	-3.3186e-08
2	1	0	1	1	7234.99	-0.00425611	-0.0034474	0.00314821	1	2.71631e-05	42	21.2089	-1.08531e-08
2	1	0	1	1	7236.49	-0.019248	-0.0184083	0.00272639	1	3.15556e-05	42	22.7081	-5.01882e-08
2	1	0	1	1	7237.99	-0.0342399	-0.0333889	0.00236372	1	3.53663e-05	42	24.2073	-7.89221e-08
2	1	0	1	1	7239.49	-0.0492319	-0.0483946	0.00203643	1	3.86608e-05	42	25.7065	-9.85522e-08
2	1	0	1	1	7240.99	-0.0642238	-0.0633924	0.00174224	1	4.14892e-05	42	27.2057	-1.10445e-07
2	1	0	1	1	7242.49	-0.0792157	-0.0783906	0.00147396	1	4.38963e-05	42	28.7049	-1.15545e-07
2	1	0	1	1	7243.99	-0.0942076	-0.0933748	0.00122915	1	4.59192e-05	42	30.2041	-1.14771e-07
2	1	0	1	1	7245.48	-0.109199	-0.108373	0.00100612	1	4.7592e-05	42	31.7033	-1.09036e-07
2	1	0	1	1	7246.98	-0.124191	-0.123353	0.000801416	1	4.89446e-05	42	33.2025	-9.88568e-08
2	1	0	1	1	7248.48	-0.139183	-0.138329	0.000613348	1	5.0003e-05	42	34.7017	-8.48436e-08
2	1	0	1	1	7250.38	-0.158173	-0.157302	0.000396272	1	5.09659e-05	43	36.6007	-6.23345e-08
2	1	0	1	1	7251.88	-0.173165	-0.172316	0.000237692	1	5.14394e-05	43	38.0999	-4.09582e-08
2	1	0	1	1	7253.38	-0.188157	-0.187287	8.8696e-05	1	5.16827e-05	43	39.5991	-1.66116e-08
2	0	0	1	1	7255.28	-0.207147	-0.206304	-8.82197e-05	1	5.16887e-05	44	0.8496	1.82e-08
2	0	0	1	1	7257.18	-0.226136	-0.225268	-0.000256306	1	5.13672e-05	43	2.7485	5.77376e-08
2	0	0	1	1	7258.68	-0.241128	-0.240303	-0.000384051	1	5.08865e-05	43	4.2477	9.22887e-08
2	0	0	1	1	7260.1	-0.255321	-0.254446	-0.000503016	2	5.02567e-05	43	5.667	1.27991e-07
2	0	0	1	1	7261.6	-0.270313	-0.269463	-0.000627605	2	4.9409e-05	43	7.1662	1.69116e-07
2	0	0	1	1	7263.1	-0.285304	-0.28445	-0.000753062	2	4.83741e-05	43	8.6654	2.14208e-07
2	0	0	1	1	7264.54	-0.290252	-0.291028	-0.000676966	2	4.72482e-05	43	10.115	1.97016e-07
2	0	0	1	1	7266.04	-0.27526	-0.276067	-0.000523302	2	4.63581e-05	43	11.6142	1.44466e-07
2	0	0	1	1	7267.54	-0.260268	-0.26107	-0.000398541	2	4.56679e-05	43	13.1134	1.04047e-07
2	0	0	1	1	7269.04	-0.245276	-0.246063	-0.000277273	2	4.51615e-05	43	14.6126	6.82266e-08
2	0	0	1	1	7270.54	-0.230285	-0.231083	-0.000153972	2	4.48383e-05	43	16.1117	3.55804e-08
2	1	0	1	1	7273.24	-0.203249	-0.20405	8.18009e-05	2	4.47104e-05	44	0.5022	-1.66915e-08
2	1	0	1	1	7275.14	-0.184259	-0.185045	0.000261182	2	4.50268e-05	43	2.4012	-4.83304e-08
2	1	0	1	1	7276.64	-0.169267	-0.170024	0.000413196	2	4.55311e-05	43	3.9004	-7.02531e-08
2	1	0	1	1	7278.14	-0.154275	-0.155038	0.000575804	2	4.6271e-05	43	5.3996	-8.92716e-08
2	1	0	1	1	7279.64	-0.139283	-0.140052	0.000750353	2	4.72637e-05	43	6.8988	-1.05088e-07
2	1	0	1	1	7281.14	-0.124291	-0.12505	0.000938519	2	4.85282e-05	43	8.398	-1.17362e-07
2	1	0	1	1	7283.04	-0.105302	-0.106091	0.00120238	2	5.05436e-05	42	10.297	-1.27561e-07
2	1	0	1	1	7284.54	-0.0903097	-0.091116	0.00141988	2	5.25059e-05	42	11.7962	-1.29373e-07
2	1	0	1	1	7286.04	-0.0753178	-0.0761151	0.00165902	2	5.48119e-05	42	13.2954	-1.26276e-07
2	1	0	1	1	7287.54	-0.0603259	-0.061134	0.00191463	2	5.74888e-05	42	14.7946	-1.17049e-07
2	1	0	1	1	7289.04	-0.045334	-0.0461436	0.00218732	2	6.05626e-05	42	16.2938	-1.00931e-07
2	1	0	1	1	7290.54	-0.030342	-0.0311492	0.00247673	2	6.40571e-05	42	17.793	-7.71483e-08
2	1	0	1	1	7292.03	-0.015351	-0.0161513	0.00278191	2	6.79977e-05	42	19.2921	-4.49313e-08
2	1	0	1	1	7293.53	-0.00035844	-0.00116979	0.00310147	2	7.24065e-05	42	20.7913	-3.62808e-09
2	1	0	1	0	7294.95	-0.013751	-0.0128815	0.0026914	2	7.64895e-05	42	22.206	-3.46693e-08
2	1	0	1	0	7296.45	-0.0287429	-0.0278933	0.0023402	2	8.02557e-05	42	23.7052	-6.52759e-08
2	1	0	1	0	7297.95	-0.0437348	-0.0428809	0.00202621	2	8.35247e-05	42	25.2044	-8.68859e-08
2	1	0	1	0	7299.45	-0.0587267	-0.0578518	0.00174181	2	8.63456e-05	42	26.7036	-1.00767e-07
2	1	0	1	0	7300.95	-0.0737186	-0.0728434	0.00148279	2	8.87597e-05	42	28.2028	-1.08011e-07
[...]
2	0	0	1	0	7313.74	-0.20165	-0.200803	-3.24733e-05	2	9.70088e-05	44	0.2998	6.52075e-09
2	0	0	1	0	7315.64	-0.220639	-0.219796	-0.000195333	2	9.67982e-05	43	2.1988	4.29335e-08
2	0	0	1	0	7317.14	-0.235631	-0.234781	-0.000318355	2	9.64125e-05	43	3.698	7.47437e-08
2	0	0	1	0	7318.56	-0.249824	-0.248993	-0.000433096	3	9.58788e-05	43	5.1172	1.07838e-07
2	0	0	1	0	7320.06	-0.264816	-0.263977	-0.000553437	3	9.51391e-05	43	6.6164	1.46094e-07
2	0	0	1	0	7321.55	-0.279807	-0.278993	-0.000674514	3	9.4219e-05	43	8.1156	1.88184e-07
2	0	0	1	0	7323.05	-0.294774	-0.293963	-0.000796589	3	9.31188e-05	43	9.6123	2.34168e-07
2	0	0	1	0	7324.5	-0.280757	-0.281563	-0.0005371	3	9.22083e-05	43	11.0644	1.51227e-07
2	0	0	1	0	7326	-0.265765	-0.266562	-0.000411983	3	9.1499e-05	43	12.5636	1.09819e-07
2	0	0	1	0	7327.5	-0.250773	-0.251573	-0.000293562	3	9.09706e-05	43	14.0628	7.38524e-08
2	0	0	1	0	7329	-0.235781	-0.236581	-0.000175312	3	9.06189e-05	43	15.562	4.14754e-08
2	0	0	1	0	7330.5	-0.220789	-0.22157	-5.40407e-05	3	9.04466e-05	43	17.0612	1.19738e-08
2	1	0	1	0	7333.6	-0.189806	-0.190583	0.00021553	3	9.0658e-05	43	2.049	-4.10764e-08
2	1	0	1	0	7335.1	-0.174814	-0.175589	0.000357547	3	9.10868e-05	43	3.5482	-6.27815e-08
2	1	0	1	0	7336.6	-0.159823	-0.160587	0.000509817	3	9.17359e-05	43	5.0473	-8.18698e-08
2	1	0	1	0	7338.1	-0.14483	-0.145623	0.000672636	3	9.26207e-05	43	6.5465	-9.7951e-08
2	1	0	1	0	7339.6	-0.129837	-0.130597	0.000847497	3	9.37588e-05	43	8.0457	-1.1068e-07
2	1	0	1	0	7341.09	-0.114846	-0.115616	0.00103553	3	9.5169e-05	43	9.5448	-1.19724e-07
2	1	0	1	0	7342.99	-0.0958567	-0.0966823	0.00129603	3	9.7371e-05	42	11.4438	-1.25303e-07
2	1	0	1	0	7344.49	-0.0808648	-0.0816995	0.00151733	3	9.94774e-05	42	12.943	-1.23965e-07
2	1	0	1	0	7345.99	-0.0658729	-0.0667168	0.0017557	3	0.000101929	42	14.4422	-1.17135e-07
2	1	0	1	0	7347.49	-0.050881	-0.0517118	0.00200911	3	0.000104749	42	15.9414	-1.03894e-07
2	1	0	1	0	7348.99	-0.035889	-0.0367477	0.00228127	3	0.000107964	42	17.4406	-8.38316e-08
2	1	0	1	0	7350.49	-0.0208971	-0.0217319	0.00256642	3	0.000111595	42	18.9398	-5.57732e-08
2	1	0	1	0	7351.99	-0.00590522	-0.0067468	0.0028698	3	0.000115669	42	20.439	-1.9362e-08
2	1	0	1	1	7353.41	-0.00825396	-0.00744402	0.00272341	3	0.000119759	42	21.8586	-2.02731e-08
2	1	0	1	1	7354.91	-0.0232459	-0.0224189	0.00237026	3	0.00012357	42	23.3578	-5.31387e-08
2	1	0	1	1	7356.41	-0.0382378	-0.037422	0.00205594	3	0.000126883	42	24.857	-7.69374e-08
2	1	0	1	1	7357.91	-0.0532297	-0.0523952	0.00177267	3	0.00012975	42	26.3562	-9.28795e-08
2	1	0	1	1	7359.4	-0.0682216	-0.0673854	0.00151561	3	0.000132211	42	27.8554	-1.0213e-07
2	1	0	1	1	7360.9	-0.0832135	-0.082384	0.00128102	3	0.000134305	42	29.3546	-1.05535e-07
2	1	0	1	1	7362.4	-0.0982054	-0.0973746	0.00106647	3	0.000136063	42	30.8538	-1.03847e-07
2	1	0	1	1	7363.9	-0.113197	-0.112371	0.000870274	3	0.000137512	42	32.353	-9.77936e-08
2	1	0	1	1	7365.4	-0.128189	-0.127365	0.000689301	3	0.000138679	42	33.8522	-8.77927e-08
2	1	0	1	1	7366.9	-0.143181	-0.142339	0.000522081	3	0.000139585	42	35.3514	-7.43125e-08
2	1	0	1	1	7368.8	-0.162171	-0.161317	0.000327994	3	0.000140398	43	37.2504	-5.29112e-08
2	1	0	1	1	7370.3	-0.177163	-0.17631	0.000185193	3	0.000140781	43	38.7496	-3.26515e-08
2	1	0	1	1	7371.8	-0.192155	-0.191312	5.05633e-05	3	0.000140957	43	40.2488	-9.67335e-09
2	0	0	1	1	7373.9	-0.213142	-0.21234	-0.000126893	3	0.000140883	44	1.4492	2.69443e-08
2	0	0	1	1	7375.6	-0.230135	-0.229309	-0.000264358	3	0.000140555	43	3.1483	6.06196e-08
2	0	0	1	1	7377.08	-0.244926	-0.244087	-0.000380283	3	0.000140078	43	4.6274	9.28224e-08
2	0	0	1	1	7377.08	-0.245001	-0.244162	-0.000380877	3	0.000140075	43	4.6349	9.29957e-08

File: 600_A_03_OCV_C04.mpt
EC-Lab ASCII FILE
Nb header lines : 48

Open Circuit Voltage

Run on channel : 4 (SN 13148)
User :
Electrode connection : standard
Potential control : Ewe
Ewe ctrl range : min = -1.00 V, max = 1.00 V
Ewe,I filtering : 5 Hz
Safety Limits :
	Do not start on E overload
Channel : Floating
Acquisition started on : 07/01/2024 16:51:31.465
Loaded Setting File :  C:\Users\mAtsuhitA\Desktop\Oyafuso\20240624_???????4\1540_A.mps
Saved on :
	File : 600_A_03_OCV_C04.mpr
	Directory : C:\Users\mAtsuhitA\Desktop\Oyafuso\20240624_???????4\600_A\
	Host : 192.109.209.100
Device : VSP-300 (SN 0960)
Address : USB
EC-Lab for windows v11.50 (software)
Internet server v11.50 (firmware)
Command interpretor v11.50 (firmware)
Electrode material :
Initial state :
Electrolyte :
Comments :
Cable : standard
Electrode surface area : 0.001 cm2
Characteristic mass : 0.001 g
Equivalent Weight : 0.000 g/eq.
Density : 0.000 g/cm3
Volume (V) : 0.001 cm3
Text export
   Mode : Standard
   Time format : Elapsed
Cycle Definition : Charge/Discharge alternance
tR (h:m:s)          0:10:0.0000
dER/dt (mV/h)       0.0
record              Ewe
dER (mV)            10.00
dtR (s)             30.0000
E range min (V)     -1.000
E range max (V)     1.000

mode	error	time/s	Ewe/V
3	0	7377.13	-0.244403
3	0	7377.32	-0.234354
3	0	7377.7	-0.224341
3	0	7378.55	-0.214335
3	0	7386.39	-0.204332
3	0	7416.39	-0.200384
3	0	7446.39	-0.198578
3	0	7476.39	-0.197452
3	0	7506.39	-0.196669
3	0	7536.39	-0.196139
3	0	7566.39	-0.195688
3	0	7596.39	-0.195337
3	0	7626.39	-0.195161
3	0	7656.39	-0.194925
3	0	7686.39	-0.194818
3	0	7716.39	-0.194745
3	0	7746.39	-0.194646
3	0	7776.39	-0.194646
3	0	7806.39	-0.194627
3	0	7836.39	-0.19457
3	0	7866.39	-0.194478
3	0	7896.39	-0.194421
3	0	7926.39	-0.194382
3	0	7956.39	-0.194302
3	0	7977.13	-0.19426

File: 600_A_05_OCV_C04.mpt
EC-Lab ASCII FILE
Nb header lines : 48

Open Circuit Voltage

Run on channel : 4 (SN 13148)
User :
Electrode connection : standard
Potential control : Ewe
Ewe ctrl range : min = -1.00 V, max = 1.00 V
Ewe,I filtering : 5 Hz
Safety Limits :
	Do not start on E overload
Channel : Floating
Acquisition started on : 07/01/2024 16:51:31.465
Loaded Setting File :  C:\Users\mAtsuhitA\Desktop\Oyafuso\20240624_???????4\1540_A.mps
Saved on :
	File : 600_A_05_OCV_C04.mpr
	Directory : C:\Users\mAtsuhitA\Desktop\Oyafuso\20240624_???????4\600_A\
	Host : 192.109.209.100
Device : VSP-300 (SN 0960)
Address : USB
EC-Lab for windows v11.50 (software)
Internet server v11.50 (firmware)
Command interpretor v11.50 (firmware)
Electrode material :
Initial state :
Electrolyte :
Comments :
Cable : standard
Electrode surface area : 0.001 cm2
Characteristic mass : 0.001 g
Equivalent Weight : 0.000 g/eq.
Density : 0.000 g/cm3
Volume (V) : 0.001 cm3
Text export
   Mode : Standard
   Time format : Elapsed
Cycle Definition : Charge/Discharge alternance
tR (h:m:s)          5:00:0.0000
dER/dt (mV/h)       0.0
record              Ewe
dER (mV)            10.00
dtR (s)             30.0000
E range min (V)     -1.000
E range max (V)     1.000

mode	error	time/s	Ewe/V
3	0	243101	-0.00170115
3	0	243101	-0.0317597
3	0	243101	-0.0618554
3	0	243102	-0.0919032
3	0	243103	-0.121943
3	0	243105	-0.151961
3	0	243114	-0.181978
3	0	243204	-0.197093
3	0	243294	-0.20227
3	0	243384	-0.206096
3	0	243474	-0.208662
3	0	243564	-0.210735
3	0	243654	-0.212655
3	0	243744	-0.214251
3	0	243834	-0.215618
3	0	243924	-0.217065
3	0	244014	-0.217963
3	0	244104	-0.219028
3	0	244194	-0.22015
3	0	244284	-0.220883
3	0	244374	-0.221632
3	0	244464	-0.222334
3	0	244554	-0.223105
3	0	244644	-0.223873
3	0	244734	-0.224407
3	0	244824	-0.22514
3	0	244914	-0.225992
3	0	245004	-0.226694
3	0	245094	-0.227229
3	0	245184	-0.227844
3	0	245274	-0.228225
3	0	245364	-0.2285
3	0	245454	-0.229062
3	0	245544	-0.229428
3	0	245634	-0.229955
3	0	245724	-0.23018
3	0	245814	-0.230696
3	0	245904	-0.230971
3	0	245994	-0.23149
3	0	246084	-0.231776
3	0	246174	-0.232036
3	0	246264	-0.23225
3	0	246354	-0.232349
3	0	246444	-0.232689
3	0	246534	-0.233059
3	0	246624	-0.233296
3	0	246714	-0.233681
3	0	246804	-0.234124
3	0	246894	-0.23425
3	0	246984	-0.234525
3	0	247074	-0.234892
3	0	247164	-0.235044
3	0	247254	-0.235251
3	0	247344	-0.235606
3	0	247434	-0.235751
3	0	247524	-0.236106
3	0	247614	-0.236159
3	0	247704	-0.236621
3	0	247794	-0.236736
3	0	247884	-0.23685
3	0	247974	-0.237095
3	0	248064	-0.237236
3	0	248154	-0.237713
3	0	248244	-0.237713
3	0	248334	-0.23782
3	0	248424	-0.238019
3	0	248514	-0.23819
3	0	248604	-0.238358
3	0	248694	-0.238687
3	0	248784	-0.238603
3	0	248874	-0.238832
3	0	248964	-0.238908
3	0	249054	-0.239114
3	0	249144	-0.239301
3	0	249234	-0.239424
3	0	249324	-0.239595
3	0	249414	-0.239553
3	0	249504	-0.239702
3	0	249594	-0.239924
3	0	249684	-0.240099
3	0	249774	-0.240275
3	0	249864	-0.240317
3	0	249954	-0.2405
3	0	250044	-0.240993
3	0	250134	-0.240905
3	0	250224	-0.241172
3	0	250314	-0.241111
3	0	250404	-0.241256
3	0	250494	-0.241417
3	0	250584	-0.241745
3	0	250674	-0.241737
3	0	250764	-0.243196
3	0	250854	-0.243314
3	0	250944	-0.243299
3	0	251034	-0.243253
3	0	251124	-0.243219
3	0	251214	-0.243123
3	0	251304	-0.243089
3	0	251394	-0.243207
3	0	251484	-0.243391
3	0	251574	-0.243295
3	0	251664	-0.24336
3	0	251754	-0.243093
3	0	251844	-0.243097
3	0	251934	-0.243219
3	0	252024	-0.243043
3	0	252114	-0.242982
3	0	252204	-0.243005
3	0	252294	-0.243116
3	0	252384	-0.243177
3	0	252474	-0.243391
3	0	252564	-0.243509
3	0	252654	-0.243513
3	0	252744	-0.243734
3	0	252834	-0.243585
3	0	252924	-0.243811
3	0	253014	-0.243604
3	0	253104	-0.243772
3	0	253194	-0.24383
3	0	253284	-0.243837
3	0	253374	-0.244036
3	0	253464	-0.244169
3	0	253554	-0.243952
3	0	253644	-0.244032
3	0	253734	-0.244124
3	0	253824	-0.244284
3	0	253914	-0.244055
3	0	254004	-0.244059
3	0	254094	-0.24446
3	0	254184	-0.244574
3	0	254274	-0.244658
3	0	254364	-0.24483
3	0	254454	-0.244803
3	0	254544	-0.244822
3	0	254634	-0.244742
3	0	254724	-0.244734
3	0	254814	-0.244757
3	0	254904	-0.244734
3	0	254994	-0.244811
3	0	255084	-0.244967
3	0	255174	-0.24504
3	0	255264	-0.245021
3	0	255354	-0.245242
3	0	255444	-0.245216
3	0	255534	-0.245261
3	0	255624	-0.245376
3	0	255714	-0.245708
3	0	255804	-0.245739
3	0	255894	-0.245876
3	0	255984	-0.246036
3	0	256074	-0.246124
3	0	256164	-0.246208
3	0	256254	-0.246304
3	0	256344	-0.246208
3	0	256434	-0.246422
3	0	256524	-0.246304
3	0	256614	-0.246254
3	0	256704	-0.246456
3	0	256794	-0.246437
3	0	256884	-0.246552
3	0	256974	-0.246609
3	0	257064	-0.246666
3	0	257154	-0.246808
3	0	257244	-0.246995
3	0	257334	-0.246685
3	0	257424	-0.24701
3	0	257514	-0.247231
3	0	257604	-0.247094
3	0	257694	-0.247105
3	0	257784	-0.247174
3	0	257874	-0.247094
3	0	257964	-0.247228
3	0	258054	-0.247304
3	0	258144	-0.247533
3	0	258234	-0.247911
3	0	258324	-0.248029
3	0	258414	-0.248102
3	0	258504	-0.248377
3	0	258594	-0.248495
3	0	258684	-0.248373
3	0	258774	-0.248526
3	0	258864	-0.248507
3	0	258954	-0.248617
3	0	259044	-0.248709
3	0	259134	-0.248583
3	0	259224	-0.248782
3	0	259314	-0.248495
3	0	259404	-0.248759
3	0	259494	-0.248877
3	0	259584	-0.249106
3	0	259674	-0.249274
3	0	259764	-0.249259
3	0	259854	-0.249312
3	0	259944	-0.249335
3	0	260034	-0.24974
3	0	260124	-0.249812
3	0	260214	-0.249812
3	0	260304	-0.249874
3	0	260394	-0.249786
3	0	260484	-0.249713
3	0	260574	-0.249622
3	0	260664	-0.249671
3	0	260754	-0.249576
3	0	260844	-0.24953
3	0	260934	-0.249816
3	0	261024	-0.24966
3	0	261101	-0.249614