Folder: STC_grapher/data_dir/600_B_immertest4 (part 4)

File: 600_B_12_CP_C03.mpt
EC-Lab ASCII FILE
Nb header lines : 57

Chronopotentiometry

Run on channel : 3 (SN 13150)
User :
Electrode connection : standard
Potential control : Ewe
Ewe ctrl range : min = -1.00 V, max = 1.00 V
Ewe,I filtering : 5 Hz
Safety Limits :
	Do not start on E overload
Channel : Floating
Acquisition started on : 07/01/2024 16:51:05.709
Loaded Setting File :  C:\Users\mAtsuhitA\Desktop\Oyafuso\20240624_???????4\1540_A.mps
Saved on :
	File : 600_B_12_CP_C03.mpr
	Directory : C:\Users\mAtsuhitA\Desktop\Oyafuso\20240624_???????4\600_B\
	Host : 192.109.209.100
Device : VSP-300 (SN 0834)
Address : 192.109.209.128
EC-Lab for windows v11.50 (software)
Internet server v11.50 (firmware)
Command interpretor v11.50 (firmware)
Electrode material :
Initial state :
Electrolyte :
Comments :
Cable : standard
Electrode surface area : 0.001 cm2
Characteristic mass : 0.001 g
Equivalent Weight : 0.000 g/eq.
Density : 0.000 g/cm3
Volume (V) : 0.001 cm3
Text export
   Mode : Standard
   Time format : Elapsed
Cycle Definition : Charge/Discharge alternance
Is                  200.000
unit Is             nA
vs.                 <None>
ts (h:m:s)          1000:40:0.0000
EM (V)              0.000
dQM                 200.133
unit dQM            uA.h
record              Ewe
dEs (mV)            10.00
dts (s)             10.0000
E range min (V)     -1.000
E range max (V)     1.000
I Range             1 uA
Bandwidth           8
goto Ns'            0
nc cycles           0

mode	ox/red	error	control changes	Ns changes	counter inc.	Ns	time/s	control/mA	Ewe/V	I/mA	dQ/C	(Q-Qo)/C	half cycle	Q charge/discharge/mA.h	I Range	Energy charge/W.h	Energy discharge/W.h	Capacitance charge/uF	Capacitance discharge/uF	step time/s	Q discharge/mA.h	Q charge/mA.h	Capacity/mA.h	Efficiency/%	cycle number	P/W
1	1	0	1	0	0	0	279633	0.0002	-0.254371	-1.40571e-07	0.0000000E+000	0.0000000E+000	0	0.000000000000000E+000	43	0.000000000000000E+000	0.000000000000000E+000	0.000000000000000E+000	0.000000000000000E+000	279633	0.000000000000000E+000	0.000000000000000E+000	0.000000000000000E+000	0.0000000E+000	0.000000000000000E+000	3.57573e-11
1	1	0	1	0	0	0	279634	0.0002	-0.204241	0.000199714	2.60723e-07	2.60723e-07	0	7.24229e-08	43	1.5599e-11	0.000000000000000E+000	6.50223	0.000000000000000E+000	279634	0.000000000000000E+000	7.24229e-08	7.24229e-08	0.0000000E+000	0.000000000000000E+000	-4.07899e-08
1	1	0	1	0	0	0	279668	0.0002	-0.176309	0.000199787	7.0761e-06	7.0761e-06	0	1.96558e-06	43	3.5475e-10	0.000000000000000E+000	104.015	0.000000000000000E+000	279668	0.000000000000000E+000	1.96558e-06	1.96558e-06	0.0000000E+000	0.000000000000000E+000	-3.52243e-08
1	1	0	1	0	0	0	279718	0.0002	-0.167771	0.000199806	1.70656e-05	1.70656e-05	0	4.74045e-06	43	8.2925e-10	0.000000000000000E+000	222.883	0.000000000000000E+000	279718	0.000000000000000E+000	4.74045e-06	4.74045e-06	0.0000000E+000	0.000000000000000E+000	-3.35217e-08
1	1	0	1	0	0	0	279768	0.0002	-0.160401	0.000199779	2.7055e-05	2.7055e-05	0	7.51527e-06	43	1.28226e-09	0.000000000000000E+000	322.324	0.000000000000000E+000	279768	0.000000000000000E+000	7.51527e-06	7.51527e-06	0.0000000E+000	0.000000000000000E+000	-3.20449e-08
1	1	0	1	0	0	0	279818	0.0002	-0.152654	0.000199776	3.70441e-05	3.70441e-05	0	1.029e-05	43	1.7145e-09	0.000000000000000E+000	404.038	0.000000000000000E+000	279818	0.000000000000000E+000	1.029e-05	1.029e-05	0.0000000E+000	0.000000000000000E+000	-3.04965e-08
1	1	0	1	0	0	0	279868	0.0002	-0.145158	0.000199756	4.70332e-05	4.70332e-05	0	1.30648e-05	43	2.12541e-09	0.000000000000000E+000	474.219	0.000000000000000E+000	279868	0.000000000000000E+000	1.30648e-05	1.30648e-05	0.0000000E+000	0.000000000000000E+000	-2.89963e-08
1	1	0	1	0	0	0	279918	0.0002	-0.136975	0.000199783	5.70216e-05	5.70216e-05	0	1.58393e-05	43	2.51419e-09	0.000000000000000E+000	531.108	0.000000000000000E+000	279918	0.000000000000000E+000	1.58393e-05	1.58393e-05	0.0000000E+000	0.000000000000000E+000	-2.73653e-08
1	1	0	1	0	0	0	279968	0.0002	-0.129342	0.000199787	6.70107e-05	6.70107e-05	0	1.86141e-05	43	2.88174e-09	0.000000000000000E+000	582.72	0.000000000000000E+000	279968	0.000000000000000E+000	1.86141e-05	1.86141e-05	0.0000000E+000	0.000000000000000E+000	-2.58409e-08
1	1	0	1	0	0	0	280018	0.0002	-0.121621	0.000199772	7.69998e-05	7.69998e-05	0	2.13888e-05	43	3.22772e-09	0.000000000000000E+000	627.456	0.000000000000000E+000	280018	0.000000000000000E+000	2.13888e-05	2.13888e-05	0.0000000E+000	0.000000000000000E+000	-2.42965e-08
1	1	0	1	0	0	0	280068	0.0002	-0.114141	0.00019973	8.69893e-05	8.69893e-05	0	2.41637e-05	43	3.55222e-09	0.000000000000000E+000	668.132	0.000000000000000E+000	280068	0.000000000000000E+000	2.41637e-05	2.41637e-05	0.0000000E+000	0.000000000000000E+000	-2.27973e-08
1	1	0	1	0	0	0	280118	0.0002	-0.106053	0.000199802	9.69786e-05	9.69786e-05	0	2.69385e-05	43	3.85535e-09	0.000000000000000E+000	701.294	0.000000000000000E+000	280118	0.000000000000000E+000	2.69385e-05	2.69385e-05	0.0000000E+000	0.000000000000000E+000	-2.11897e-08
1	1	0	1	0	0	0	280168	0.0002	-0.0984277	0.000199783	0.000106968	0.000106968	0	2.97132e-05	43	4.13773e-09	0.000000000000000E+000	733.103	0.000000000000000E+000	280168	0.000000000000000E+000	2.97132e-05	2.97132e-05	0.0000000E+000	0.000000000000000E+000	-1.96642e-08
1	1	0	1	0	0	0	280218	0.0002	-0.0920814	0.000199795	0.000116957	0.000116957	0	3.2488e-05	43	4.4006e-09	0.000000000000000E+000	768.155	0.000000000000000E+000	280218	0.000000000000000E+000	3.2488e-05	3.2488e-05	0.0000000E+000	0.000000000000000E+000	-1.83974e-08
1	1	0	1	0	0	0	280268	0.0002	-0.085464	0.000199799	0.000126946	0.000126946	0	3.52628e-05	43	4.64427e-09	0.000000000000000E+000	799.035	0.000000000000000E+000	280268	0.000000000000000E+000	3.52628e-05	3.52628e-05	0.0000000E+000	0.000000000000000E+000	-1.70756e-08
1	1	0	1	0	0	0	280318	0.0002	-0.0789459	0.00019981	0.000136936	0.000136936	0	3.80377e-05	43	4.87074e-09	0.000000000000000E+000	827.944	0.000000000000000E+000	280318	0.000000000000000E+000	3.80377e-05	3.80377e-05	0.0000000E+000	0.000000000000000E+000	-1.57742e-08
1	1	0	1	0	0	0	280368	0.0002	-0.0726302	0.000199791	0.000146925	0.000146925	0	4.08124e-05	43	5.07922e-09	0.000000000000000E+000	855.665	0.000000000000000E+000	280368	0.000000000000000E+000	4.08124e-05	4.08124e-05	0.0000000E+000	0.000000000000000E+000	-1.45109e-08
1	1	0	1	0	0	0	280418	0.0002	-0.0673875	0.000199783	0.000156914	0.000156914	0	4.35871e-05	43	5.27287e-09	0.000000000000000E+000	886.764	0.000000000000000E+000	280418	0.000000000000000E+000	4.35871e-05	4.35871e-05	0.0000000E+000	0.000000000000000E+000	-1.34629e-08
1	1	0	1	0	0	0	280468	0.0002	-0.0623318	0.000199799	0.000166903	0.000166903	0	4.63618e-05	43	5.45153e-09	0.000000000000000E+000	917.014	0.000000000000000E+000	280468	0.000000000000000E+000	4.63618e-05	4.63618e-05	0.0000000E+000	0.000000000000000E+000	-1.24538e-08
1	1	0	1	0	0	0	280518	0.0002	-0.056776	0.000199756	0.000176892	0.000176892	0	4.91366e-05	43	5.61522e-09	0.000000000000000E+000	943.108	0.000000000000000E+000	280518	0.000000000000000E+000	4.91366e-05	4.91366e-05	0.0000000E+000	0.000000000000000E+000	-1.13414e-08
1	1	0	1	0	0	0	280568	0.0002	-0.0522778	0.000199795	0.000186881	0.000186881	0	5.19114e-05	43	5.7651e-09	0.000000000000000E+000	973.032	0.000000000000000E+000	280568	0.000000000000000E+000	5.19114e-05	5.19114e-05	0.0000000E+000	0.000000000000000E+000	-1.04448e-08
[...]
1	1	0	1	0	0	0	280718	0.0002	-0.040559	0.000199795	0.000216849	0.000216849	0	6.02359e-05	43	6.14683e-09	0.000000000000000E+000	1064.14	0.000000000000000E+000	280718	0.000000000000000E+000	6.02359e-05	6.02359e-05	0.0000000E+000	0.000000000000000E+000	-8.10347e-09
1	1	0	1	0	0	0	280768	0.0002	-0.0360914	0.00019976	0.000226839	0.000226839	0	6.30108e-05	43	6.25291e-09	0.000000000000000E+000	1089.28	0.000000000000000E+000	280768	0.000000000000000E+000	6.30108e-05	6.30108e-05	0.0000000E+000	0.000000000000000E+000	-7.20963e-09
1	1	0	1	0	0	0	280818	0.0002	-0.0324371	0.000199756	0.000236828	0.000236828	0	6.57856e-05	43	6.34838e-09	0.000000000000000E+000	1117.63	0.000000000000000E+000	280818	0.000000000000000E+000	6.57856e-05	6.57856e-05	0.0000000E+000	0.000000000000000E+000	-6.47953e-09
1	1	0	1	0	0	0	280868	0.0002	-0.0286683	0.000199787	0.000246818	0.000246818	0	6.85605e-05	43	6.43264e-09	0.000000000000000E+000	1144.42	0.000000000000000E+000	280868	0.000000000000000E+000	6.85605e-05	6.85605e-05	0.0000000E+000	0.000000000000000E+000	-5.72756e-09
1	1	0	1	0	0	0	280918	0.0002	-0.0248346	0.00019976	0.000256807	0.000256807	0	7.13354e-05	43	6.50677e-09	0.000000000000000E+000	1169.95	0.000000000000000E+000	280918	0.000000000000000E+000	7.13354e-05	7.13354e-05	0.0000000E+000	0.000000000000000E+000	-4.96096e-09
1	1	0	1	0	0	0	280968	0.0002	-0.0216614	0.000199783	0.000266797	0.000266797	0	7.41101e-05	43	6.57073e-09	0.000000000000000E+000	1198.13	0.000000000000000E+000	280968	0.000000000000000E+000	7.41101e-05	7.41101e-05	0.0000000E+000	0.000000000000000E+000	-4.32759e-09
1	1	0	1	0	0	0	281018	0.0002	-0.0178353	0.000199814	0.000276786	0.000276786	0	7.68851e-05	43	6.62355e-09	0.000000000000000E+000	1222	0.000000000000000E+000	281018	0.000000000000000E+000	7.68851e-05	7.68851e-05	0.0000000E+000	0.000000000000000E+000	-3.56375e-09
1	1	0	1	0	0	0	281068	0.0002	-0.0152273	0.000199779	0.000286776	0.000286776	0	7.966e-05	43	6.66875e-09	0.000000000000000E+000	1251.69	0.000000000000000E+000	281068	0.000000000000000E+000	7.966e-05	7.966e-05	0.0000000E+000	0.000000000000000E+000	-3.04211e-09
1	1	0	1	0	0	0	281118	0.0002	-0.0112409	0.000199772	0.000296765	0.000296765	0	8.24348e-05	43	6.70485e-09	0.000000000000000E+000	1273.14	0.000000000000000E+000	281118	0.000000000000000E+000	8.24348e-05	8.24348e-05	0.0000000E+000	0.000000000000000E+000	-2.24561e-09
1	1	0	1	0	0	0	281168	0.0002	-0.00813647	0.000199753	0.000306754	0.000306754	0	8.52095e-05	43	6.73122e-09	0.000000000000000E+000	1298.69	0.000000000000000E+000	281168	0.000000000000000E+000	8.52095e-05	8.52095e-05	0.0000000E+000	0.000000000000000E+000	-1.62528e-09
1	1	0	1	0	0	0	281218	0.0002	-0.0051848	0.000199783	0.000316743	0.000316743	0	8.79843e-05	43	6.74899e-09	0.000000000000000E+000	1324.44	0.000000000000000E+000	281218	0.000000000000000E+000	8.79843e-05	8.79843e-05	0.0000000E+000	0.000000000000000E+000	-1.03584e-09
1	1	0	1	0	0	0	281268	0.0002	-0.00254242	0.000199787	0.000326733	0.000326733	0	9.07591e-05	43	6.75958e-09	0.000000000000000E+000	1351.27	0.000000000000000E+000	281268	0.000000000000000E+000	9.07591e-05	9.07591e-05	0.0000000E+000	0.000000000000000E+000	-5.07944e-10
1	1	0	1	0	0	0	281306	0.0002	-2.60607e-05	0.000199787	0.000334163	0.000334163	0	9.2823e-05	43	6.76233e-09	0.000000000000000E+000	1367.77	0.000000000000000E+000	281306	0.000000000000000E+000	9.2823e-05	9.2823e-05	0.0000000E+000	0.000000000000000E+000	-5.2066e-12