Folder: STC_grapher/data_dir/600_B_immertest4 (part 3)

File: 600_B_09_OCV_C03.mpt
EC-Lab ASCII FILE
Nb header lines : 48

Open Circuit Voltage

Run on channel : 3 (SN 13150)
User :
Electrode connection : standard
Potential control : Ewe
Ewe ctrl range : min = -1.00 V, max = 1.00 V
Ewe,I filtering : 5 Hz
Safety Limits :
	Do not start on E overload
Channel : Floating
Acquisition started on : 07/01/2024 16:51:05.709
Loaded Setting File :  C:\Users\mAtsuhitA\Desktop\Oyafuso\20240624_???????4\1540_A.mps
Saved on :
	File : 600_B_09_OCV_C03.mpr
	Directory : C:\Users\mAtsuhitA\Desktop\Oyafuso\20240624_???????4\600_B\
	Host : 192.109.209.100
Device : VSP-300 (SN 0834)
Address : 192.109.209.128
EC-Lab for windows v11.50 (software)
Internet server v11.50 (firmware)
Command interpretor v11.50 (firmware)
Electrode material :
Initial state :
Electrolyte :
Comments :
Cable : standard
Electrode surface area : 0.001 cm2
Characteristic mass : 0.001 g
Equivalent Weight : 0.000 g/eq.
Density : 0.000 g/cm3
Volume (V) : 0.001 cm3
Text export
   Mode : Standard
   Time format : Elapsed
Cycle Definition : Charge/Discharge alternance
tR (h:m:s)          5:00:0.0000
dER/dt (mV/h)       0.0
record              Ewe
dER (mV)            10.00
dtR (s)             30.0000
E range min (V)     -1.000
E range max (V)     1.000

mode	error	time/s	Ewe/V
3	0	260848	-0.00126246
3	0	260848	-0.0313785
3	0	260849	-0.0614803
3	0	260851	-0.0915201
3	0	260855	-0.121552
3	0	260861	-0.151584
3	0	260892	-0.181628
3	0	260982	-0.196532
3	0	261072	-0.203664
3	0	261162	-0.208445
3	0	261252	-0.212283
3	0	261342	-0.215143
3	0	261432	-0.217701
3	0	261522	-0.220103
3	0	261612	-0.222035
3	0	261702	-0.223833
3	0	261792	-0.225029
3	0	261882	-0.22682
3	0	261972	-0.22774
3	0	262062	-0.228797
3	0	262152	-0.229378
3	0	262242	-0.230103
3	0	262332	-0.230932
3	0	262422	-0.231558
3	0	262512	-0.232452
3	0	262602	-0.232983
3	0	262692	-0.233502
3	0	262782	-0.233983
3	0	262872	-0.234819
3	0	262962	-0.235316
3	0	263052	-0.235453
3	0	263142	-0.235808
3	0	263232	-0.235911
3	0	263322	-0.236243
3	0	263412	-0.23669
3	0	263502	-0.237042
3	0	263592	-0.237282
3	0	263682	-0.237412
3	0	263772	-0.237641
3	0	263862	-0.238206
3	0	263952	-0.238279
3	0	264042	-0.238493
3	0	264132	-0.238481
3	0	264222	-0.238714
3	0	264312	-0.239058
3	0	264402	-0.239459
3	0	264492	-0.239776
3	0	264582	-0.239871
3	0	264672	-0.240215
3	0	264762	-0.240868
3	0	264852	-0.240982
3	0	264942	-0.241001
3	0	265032	-0.241104
3	0	265122	-0.241242
3	0	265212	-0.241459
3	0	265302	-0.241761
3	0	265392	-0.242067
3	0	265482	-0.242193
3	0	265572	-0.242639
3	0	265662	-0.24314
3	0	265752	-0.242991
3	0	265842	-0.242956
3	0	265932	-0.242968
3	0	266022	-0.243056
3	0	266112	-0.243185
3	0	266202	-0.2433
3	0	266292	-0.243476
3	0	266382	-0.243334
3	0	266472	-0.243583
3	0	266562	-0.244052
3	0	266652	-0.244274
3	0	266742	-0.245098
3	0	266832	-0.245076
3	0	266922	-0.245427
3	0	267012	-0.247943
3	0	267102	-0.246714
3	0	267192	-0.246603
3	0	267282	-0.245935
3	0	267372	-0.246702
3	0	267462	-0.246698
3	0	267552	-0.246771
3	0	267642	-0.247229
3	0	267732	-0.247264
3	0	267822	-0.247409
3	0	267912	-0.247771
3	0	268002	-0.248096
3	0	268092	-0.248329
3	0	268182	-0.248749
3	0	268272	-0.248963
3	0	268362	-0.249257
3	0	268452	-0.249471
3	0	268542	-0.249921
3	0	268632	-0.250131
3	0	268722	-0.250211
3	0	268812	-0.250536
3	0	268902	-0.250807
3	0	268992	-0.251029
3	0	269082	-0.251323
3	0	269172	-0.251552
3	0	269262	-0.25154
3	0	269352	-0.251865
3	0	269442	-0.252018
3	0	269532	-0.252277
3	0	269622	-0.252457
3	0	269712	-0.25259
3	0	269802	-0.252923
3	0	269892	-0.253049
3	0	269982	-0.253163
3	0	270072	-0.253281
3	0	270162	-0.253503
3	0	270252	-0.253701
3	0	270342	-0.253858
3	0	270432	-0.254026
3	0	270522	-0.254114
3	0	270612	-0.254099
3	0	270702	-0.254221
3	0	270792	-0.254358
3	0	270882	-0.254522
3	0	270972	-0.254461
3	0	271062	-0.254637
3	0	271152	-0.254633
3	0	271242	-0.25545
3	0	271332	-0.254847
3	0	271422	-0.25521
3	0	271512	-0.255053
3	0	271602	-0.255221
3	0	271692	-0.255378
3	0	271782	-0.255408
3	0	271872	-0.25555
3	0	271962	-0.255645
3	0	272052	-0.255699
3	0	272142	-0.255958
3	0	272232	-0.255958
3	0	272322	-0.255916
3	0	272412	-0.255993
3	0	272502	-0.256183
3	0	272592	-0.256321
3	0	272682	-0.256462
3	0	272772	-0.256397
3	0	272862	-0.256615
3	0	272952	-0.256714
3	0	273042	-0.256814
3	0	273132	-0.257016
3	0	273222	-0.256768
3	0	273312	-0.257077
3	0	273402	-0.256989
3	0	273492	-0.25702
3	0	273582	-0.257302
3	0	273672	-0.25718
3	0	273762	-0.257325
3	0	273852	-0.257188
3	0	273942	-0.257428
3	0	274032	-0.257405
3	0	274123	-0.257428
3	0	274213	-0.257505
3	0	274303	-0.25768
3	0	274393	-0.257623
3	0	274483	-0.257535
3	0	274573	-0.257684
3	0	274663	-0.257799
3	0	274753	-0.257638
3	0	274843	-0.25768
3	0	274933	-0.257623
3	0	275023	-0.257741
3	0	275113	-0.257745
3	0	275203	-0.258032
3	0	275293	-0.257852
3	0	275383	-0.258009
3	0	275473	-0.258074
3	0	275563	-0.258089
3	0	275653	-0.258223
3	0	275743	-0.258093
3	0	275833	-0.258139
3	0	275923	-0.258196
3	0	276013	-0.258219
3	0	276103	-0.258307
3	0	276193	-0.258303
3	0	276283	-0.258337
3	0	276373	-0.258551
3	0	276463	-0.258383
3	0	276553	-0.258391
3	0	276643	-0.258593
3	0	276733	-0.258497
3	0	276823	-0.258478
3	0	276913	-0.258593
3	0	277003	-0.258643
3	0	277093	-0.258807
3	0	277183	-0.258937
3	0	277273	-0.259021
3	0	277363	-0.258662
3	0	277453	-0.258627
3	0	277543	-0.258509
3	0	277633	-0.258513
3	0	277723	-0.258589
3	0	277813	-0.258654
3	0	277903	-0.258559
3	0	277993	-0.258631
3	0	278083	-0.258921
3	0	278173	-0.258749
3	0	278263	-0.25886
3	0	278353	-0.258776
3	0	278443	-0.258769
3	0	278533	-0.258872
3	0	278623	-0.258788
3	0	278713	-0.25886
3	0	278803	-0.258853
3	0	278848	-0.258746

File: 600_B_10_CV_C03.mpt
EC-Lab ASCII FILE
Nb header lines : 62

Cyclic Voltammetry

Run on channel : 3 (SN 13150)
User :
Electrode connection : standard
Potential control : Ewe
Ewe ctrl range : min = -1.00 V, max = 1.00 V
Ewe,I filtering : 5 Hz
Safety Limits :
	Do not start on E overload
Channel : Floating
Acquisition started on : 07/01/2024 16:51:05.709
Loaded Setting File :  C:\Users\mAtsuhitA\Desktop\Oyafuso\20240624_???????4\1540_A.mps
Saved on :
	File : 600_B_10_CV_C03.mpr
	Directory : C:\Users\mAtsuhitA\Desktop\Oyafuso\20240624_???????4\600_B\
	Host : 192.109.209.100
Device : VSP-300 (SN 0834)
Address : 192.109.209.128
EC-Lab for windows v11.50 (software)
Internet server v11.50 (firmware)
Command interpretor v11.50 (firmware)
Electrode material :
Initial state :
Electrolyte :
Comments :
Cable : standard
Electrode surface area : 0.001 cm2
Characteristic mass : 0.001 g
Equivalent Weight : 0.000 g/eq.
Density : 0.000 g/cm3
Volume (V) : 0.001 cm3
Text export
   Mode : Standard
   Time format : Elapsed
Cycle Definition : Charge/Discharge alternance
Ei (V)              0.000
vs.                 Eoc
dE/dt               10.000
dE/dt unit          mV/s
E1 (V)              -0.050
vs.                 Eoc
Step percent        50
N                   10
E range min (V)     -1.000
E range max (V)     1.000
I Range             Auto
I Range min         Unset
I Range max         Unset
I Range init        Unset
Bandwidth           8
E2 (V)              0.000
vs.                 Ref
nc cycles           2
Reverse Scan        1
Ef (V)              0.000
vs.                 Eoc

mode	ox/red	error	control changes	counter inc.	time/s	control/V	Ewe/V	<I>/mA	cycle number	(Q-Qo)/C	I Range	step time/s	P/W
2	1	0	1	0	278848	-0.25878	-0.25912	2.03909e-06	1	0.0000000E+000	45	278848	-5.2837e-10
2	0	0	1	0	278850	-0.278052	-0.277128	-7.98179e-05	1	-8.40386e-08	44	1.7998	2.21198e-08
2	0	0	1	0	278851	-0.297549	-0.296608	-0.000139162	1	-2.93972e-07	43	3.7494	4.12764e-08
2	0	0	1	0	278853	-0.304997	-0.305749	-0.000129663	1	-5.25867e-07	43	5.2498	3.96444e-08
2	0	0	1	0	278855	-0.2895	-0.290259	-6.53162e-05	1	-6.69036e-07	43	6.79939	1.89586e-08
2	0	0	1	0	278856	-0.270003	-0.270793	-5.16235e-06	1	-7.39063e-07	44	8.74919	1.39793e-09
2	1	0	1	0	278859	-0.246508	-0.24733	6.35764e-05	1	-6.7563e-07	44	1.5996	-1.57244e-08
2	1	0	1	0	278860	-0.23101	-0.231835	0.000108651	1	-5.42303e-07	44	3.1494	-2.5189e-08
2	1	0	1	0	278862	-0.211514	-0.212298	0.000166851	1	-2.76907e-07	43	5.099	-3.54222e-08
2	1	0	1	0	278864	-0.196017	-0.196863	0.000211092	1	1.61231e-08	43	6.6488	-4.15562e-08
2	1	0	1	0	278865	-0.180519	-0.181378	0.000257828	1	3.80518e-07	43	8.19859	-4.67644e-08
2	1	0	1	0	278867	-0.165022	-0.165868	0.000307249	1	8.18741e-07	43	9.74819	-5.09627e-08
2	1	0	1	0	278869	-0.149525	-0.150395	0.000352316	1	1.3319e-06	43	11.298	-5.29866e-08
2	1	0	1	0	278870	-0.134028	-0.134891	0.000405184	1	1.91927e-06	43	12.8476	-5.46559e-08
2	1	0	1	0	278872	-0.11853	-0.119419	0.00045766	1	2.58689e-06	43	14.3974	-5.46533e-08
2	1	0	1	0	278873	-0.103033	-0.103925	0.000510827	1	3.33664e-06	43	15.9472	-5.30879e-08
2	1	0	1	0	278875	-0.0875359	-0.0884223	0.000564896	1	4.17013e-06	43	17.4968	-4.99494e-08
2	1	0	1	0	278876	-0.0720387	-0.0729336	0.000624287	1	5.09224e-06	43	19.0466	-4.55315e-08
2	1	0	1	0	278878	-0.0565419	-0.0574394	0.000683221	1	6.10567e-06	43	20.5963	-3.92438e-08
2	1	0	1	0	278879	-0.0410442	-0.0419882	0.000744415	1	7.21784e-06	43	22.146	-3.12566e-08
2	1	0	1	0	278881	-0.0255469	-0.0264831	0.000814442	1	8.43019e-06	43	23.6958	-2.15689e-08
2	1	0	1	0	278882	-0.0100497	-0.0110033	0.000870505	1	9.74024e-06	43	25.2454	-9.57842e-09
2	1	0	1	1	278884	-0.00475065	-0.00394656	0.000853582	1	1.1065e-05	43	26.7256	-3.36871e-09
2	1	0	1	1	278886	-0.0202479	-0.0194162	0.000757508	1	1.23082e-05	43	28.2754	-1.47079e-08
2	1	0	1	1	278887	-0.0357451	-0.03492	0.000670448	1	1.34167e-05	43	29.825	-2.3412e-08
2	1	0	1	1	278889	-0.0512424	-0.0503733	0.000596587	1	1.44001e-05	43	31.3748	-3.0052e-08
2	1	0	1	1	278890	-0.0667396	-0.0658637	0.0005281	1	1.5272e-05	43	32.9246	-3.47827e-08
2	1	0	1	1	278892	-0.0822369	-0.0813707	0.000466837	1	1.6043e-05	43	34.4742	-3.79868e-08
2	1	0	1	1	278893	-0.0977341	-0.0968683	0.000409175	1	1.67219e-05	43	36.024	-3.96361e-08
2	1	0	1	1	278895	-0.113231	-0.112356	0.000351109	1	1.7313e-05	43	37.5736	-3.94491e-08
2	1	0	1	1	278896	-0.128729	-0.127853	0.000301237	1	1.7819e-05	43	39.1234	-3.8514e-08
2	1	0	1	1	278898	-0.144226	-0.143353	0.000256084	1	1.8254e-05	43	40.6732	-3.67104e-08
2	1	0	1	1	278899	-0.159723	-0.158849	0.000212903	1	1.86146e-05	43	42.2228	-3.38194e-08
2	1	0	1	1	278901	-0.17522	-0.17432	0.000167509	1	1.89075e-05	43	43.7726	-2.92003e-08
2	1	0	1	1	278903	-0.190718	-0.189801	0.000126878	1	1.91367e-05	43	45.3224	-2.40816e-08
2	1	0	1	1	278904	-0.206215	-0.205305	8.73288e-05	1	1.93019e-05	43	46.872	-1.79291e-08
2	1	0	1	1	278906	-0.221712	-0.220792	4.82518e-05	1	1.94069e-05	43	48.4218	-1.06536e-08
2	0	0	1	1	278908	-0.247207	-0.2463	-1.52397e-05	1	1.94532e-05	45	0.2999	3.75355e-09
2	0	0	1	1	278910	-0.264104	-0.263197	-5.77441e-05	2	1.93929e-05	44	1.9896	1.51981e-08
2	0	0	1	1	278911	-0.279602	-0.278675	-9.80924e-05	2	1.92727e-05	44	3.5394	2.73359e-08
2	0	0	1	1	278913	-0.299098	-0.298163	-0.000149309	2	1.90349e-05	43	5.489	4.45184e-08
2	0	0	1	1	278915	-0.303498	-0.30429	-0.000119965	2	1.88016e-05	43	6.98429	3.65042e-08
2	0	0	1	1	278916	-0.288	-0.288769	-6.53064e-05	2	1.86614e-05	43	8.53399	1.88585e-08
2	0	0	1	1	278918	-0.268504	-0.269301	-9.37263e-06	2	1.85862e-05	44	10.4836	2.52405e-09
2	1	0	1	1	278921	-0.245008	-0.245817	5.45571e-05	2	1.86338e-05	44	1.5996	-1.34111e-08
2	1	0	1	1	278922	-0.229511	-0.230344	9.51525e-05	2	1.87497e-05	44	3.1494	-2.19178e-08
2	1	0	1	1	278924	-0.210014	-0.210847	0.000148851	2	1.89857e-05	43	5.099	-3.13847e-08
2	1	0	1	1	278926	-0.194517	-0.195363	0.000189258	2	1.92469e-05	43	6.6488	-3.6974e-08
2	1	0	1	1	278927	-0.17902	-0.179847	0.000232556	2	1.95736e-05	43	8.19839	-4.18245e-08
2	1	0	1	1	278929	-0.163522	-0.164382	0.000272145	2	1.99655e-05	43	9.74819	-4.47356e-08
2	1	0	1	1	278930	-0.148025	-0.148875	0.000316033	2	2.04231e-05	43	11.298	-4.70493e-08
2	1	0	1	1	278932	-0.132528	-0.133385	0.000366776	2	2.09541e-05	43	12.8476	-4.89224e-08
2	1	0	1	1	278934	-0.117031	-0.117919	0.00041497	2	2.15551e-05	43	14.3974	-4.89328e-08
2	1	0	1	1	278935	-0.101534	-0.102439	0.000463037	2	2.22327e-05	43	15.9471	-4.74332e-08
2	1	0	1	1	278937	-0.0860362	-0.0869338	0.000509351	2	2.2985e-05	43	17.4968	-4.42798e-08
2	1	0	1	1	278938	-0.0705389	-0.0714505	0.000559587	2	2.38172e-05	43	19.0466	-3.99828e-08
2	1	0	1	1	278940	-0.0550417	-0.0559544	0.000615766	2	2.47319e-05	43	20.5962	-3.44548e-08
2	1	0	1	1	278941	-0.0395445	-0.0404542	0.000671415	2	2.57314e-05	43	22.146	-2.71616e-08
2	1	0	1	1	278943	-0.0240472	-0.0249691	0.000732763	2	2.68166e-05	43	23.6958	-1.82964e-08
2	1	0	1	1	278944	-0.00854997	-0.00947781	0.000793796	2	2.80048e-05	43	25.2454	-7.52344e-09
2	1	0	1	0	278946	-0.00625038	-0.00544106	0.000758956	2	2.91893e-05	43	26.7256	-4.12953e-09
2	1	0	1	0	278947	-0.0217476	-0.0209152	0.000660791	2	3.02793e-05	43	28.2754	-1.38206e-08
2	1	0	1	0	278949	-0.0372449	-0.0363892	0.000589829	2	3.12502e-05	43	29.825	-2.14634e-08
2	1	0	1	0	278951	-0.0527421	-0.0518659	0.000520999	2	3.21066e-05	43	31.3748	-2.70221e-08
[...]
2	1	0	1	0	278966	-0.207715	-0.206775	6.00331e-05	2	3.62177e-05	43	46.872	-1.24133e-08
2	1	0	1	0	278968	-0.227211	-0.226285	1.54675e-05	2	3.62938e-05	44	48.8216	-3.50008e-09
2	0	0	1	0	278970	-0.250707	-0.249778	-3.8139e-05	2	3.62715e-05	44	1.2998	9.52629e-09
2	0	0	1	0	278972	-0.265604	-0.26469	-7.34253e-05	3	3.61893e-05	44	2.7896	1.94349e-08
2	0	0	1	0	278974	-0.285101	-0.28414	-0.000119091	3	3.60037e-05	43	4.7392	3.38386e-08
2	0	0	1	0	278975	-0.300598	-0.299673	-0.00015988	3	3.57875e-05	43	6.289	4.79118e-08
2	0	0	1	0	278977	-0.301998	-0.302784	-0.000117428	3	3.55489e-05	43	7.78419	3.55553e-08
2	0	0	1	0	278978	-0.286501	-0.287286	-6.86163e-05	3	3.54079e-05	43	9.33399	1.97125e-08
2	0	0	1	0	278980	-0.267004	-0.267814	-1.4327e-05	3	3.53264e-05	44	11.2836	3.83696e-09
2	1	0	1	0	278983	-0.243508	-0.244327	4.67313e-05	3	3.53603e-05	44	1.1998	-1.14177e-08
2	1	0	1	0	278984	-0.228011	-0.228825	8.57252e-05	3	3.54632e-05	44	2.7496	-1.96161e-08
2	1	0	1	0	278986	-0.208514	-0.209312	0.000134943	3	3.56763e-05	43	4.6992	-2.82451e-08
2	1	0	1	0	278988	-0.193017	-0.193852	0.000174006	3	3.59155e-05	43	6.249	-3.37313e-08
2	1	0	1	0	278989	-0.17752	-0.178353	0.000213517	3	3.62163e-05	43	7.79859	-3.80813e-08
2	1	0	1	0	278991	-0.162023	-0.162878	0.000255471	3	3.65788e-05	43	9.34839	-4.16107e-08
2	1	0	1	0	278992	-0.146525	-0.147395	0.000294998	3	3.70059e-05	43	10.8982	-4.34811e-08
2	1	0	1	0	278994	-0.131028	-0.131883	0.000335713	3	3.74961e-05	43	12.4478	-4.42746e-08
2	1	0	1	0	278995	-0.115531	-0.11639	0.000381517	3	3.80524e-05	43	13.9976	-4.44048e-08
2	1	0	1	0	278997	-0.100034	-0.100928	0.000425043	3	3.86782e-05	43	15.5472	-4.28989e-08
2	1	0	1	0	278999	-0.0845364	-0.085441	0.000477425	3	3.93736e-05	43	17.097	-4.07916e-08
2	1	0	1	0	279000	-0.0690392	-0.069934	0.000521525	3	4.01444e-05	43	18.6468	-3.64723e-08
2	1	0	1	0	279002	-0.053542	-0.054466	0.000572924	3	4.0989e-05	43	20.1964	-3.12049e-08
2	1	0	1	0	279003	-0.0380447	-0.0389567	0.00061775	3	4.19106e-05	43	21.7462	-2.40655e-08
2	1	0	1	0	279005	-0.0225466	-0.0234712	0.000669684	3	4.29157e-05	43	23.2959	-1.57183e-08
2	1	0	1	0	279006	-0.00705024	-0.00798543	0.000728678	3	4.40047e-05	43	24.8456	-5.81881e-09
2	1	0	1	1	279008	-0.00775011	-0.0069222	0.000674314	3	4.50803e-05	43	26.3258	-4.66774e-09
2	1	0	1	1	279009	-0.0232474	-0.0223923	0.000598517	3	4.60571e-05	43	27.8754	-1.34021e-08
2	1	0	1	1	279011	-0.0387446	-0.0378946	0.000524152	3	4.69199e-05	43	29.4252	-1.98625e-08
2	1	0	1	1	279012	-0.0542418	-0.0533629	0.000457926	3	4.76828e-05	43	30.975	-2.44363e-08
2	1	0	1	1	279014	-0.0697391	-0.0688591	0.000403264	3	4.83524e-05	43	32.5246	-2.77684e-08
2	1	0	1	1	279016	-0.0852363	-0.0843323	0.000348406	3	4.89364e-05	43	34.0744	-2.93819e-08
2	1	0	1	1	279017	-0.100734	-0.0998626	0.000303353	3	4.94443e-05	43	35.6242	-3.02936e-08
2	1	0	1	1	279019	-0.116231	-0.115346	0.000257034	3	4.98789e-05	43	37.1738	-2.96478e-08
2	1	0	1	1	279020	-0.131728	-0.130807	0.000217535	3	5.02491e-05	43	38.7236	-2.84551e-08
2	1	0	1	1	279022	-0.147225	-0.146315	0.000177164	3	5.05546e-05	43	40.2732	-2.59218e-08
2	1	0	1	1	279023	-0.162723	-0.161854	0.000142408	3	5.08003e-05	43	41.823	-2.30493e-08
2	1	0	1	1	279025	-0.17822	-0.177306	0.000106096	3	5.09928e-05	43	43.3728	-1.88115e-08
2	1	0	1	1	279026	-0.193717	-0.192804	7.22527e-05	3	5.11309e-05	43	44.9224	-1.39306e-08
2	1	0	1	1	279028	-0.213214	-0.212276	3.10942e-05	3	5.12331e-05	44	46.8722	-6.60054e-09
2	0	0	1	1	279030	-0.23271	-0.231793	-1.00316e-05	3	5.12552e-05	45	0.0999999	2.32525e-09
2	0	0	1	1	279032	-0.252207	-0.251275	-5.0954e-05	3	5.1197e-05	44	2.0496	1.28034e-08
2	0	0	0	1	279033	-0.25878	-0.257787	-6.70406e-05	3	5.11582e-05	44	2.7037	1.72822e-08

File: 600_B_11_OCV_C03.mpt
EC-Lab ASCII FILE
Nb header lines : 48

Open Circuit Voltage

Run on channel : 3 (SN 13150)
User :
Electrode connection : standard
Potential control : Ewe
Ewe ctrl range : min = -1.00 V, max = 1.00 V
Ewe,I filtering : 5 Hz
Safety Limits :
	Do not start on E overload
Channel : Floating
Acquisition started on : 07/01/2024 16:51:05.709
Loaded Setting File :  C:\Users\mAtsuhitA\Desktop\Oyafuso\20240624_???????4\1540_A.mps
Saved on :
	File : 600_B_11_OCV_C03.mpr
	Directory : C:\Users\mAtsuhitA\Desktop\Oyafuso\20240624_???????4\600_B\
	Host : 192.109.209.100
Device : VSP-300 (SN 0834)
Address : 192.109.209.128
EC-Lab for windows v11.50 (software)
Internet server v11.50 (firmware)
Command interpretor v11.50 (firmware)
Electrode material :
Initial state :
Electrolyte :
Comments :
Cable : standard
Electrode surface area : 0.001 cm2
Characteristic mass : 0.001 g
Equivalent Weight : 0.000 g/eq.
Density : 0.000 g/cm3
Volume (V) : 0.001 cm3
Text export
   Mode : Standard
   Time format : Elapsed
Cycle Definition : Charge/Discharge alternance
tR (h:m:s)          0:10:0.0000
dER/dt (mV/h)       0.0
record              Ewe
dER (mV)            10.00
dtR (s)             30.0000
E range min (V)     -1.000
E range max (V)     1.000

mode	error	time/s	Ewe/V
3	0	279033	-0.258391
3	0	279034	-0.24839
3	0	279064	-0.246614
3	0	279094	-0.247855
3	0	279124	-0.248695
3	0	279154	-0.249165
3	0	279184	-0.249887
3	0	279214	-0.250131
3	0	279244	-0.250578
3	0	279274	-0.250929
3	0	279304	-0.251269
3	0	279334	-0.251559
3	0	279364	-0.25183
3	0	279394	-0.252235
3	0	279424	-0.252411
3	0	279454	-0.252556
3	0	279484	-0.252812
3	0	279514	-0.253052
3	0	279544	-0.253278
3	0	279574	-0.253469
3	0	279604	-0.25356
3	0	279633	-0.253805